Trial_number,Trial_type,Response_time_s,Hit,Miss,Reject,False_alarm,Time_from_start,Rule,Day_of_training,Subject,d_prime_partial,%Correct_partial,Treatment,Day_of_treatment,Hit_cumsum,Miss_cumsum,CR_cumsum,FA_cumsum
1,GO,,0,1,0,0,1703.318618,go3100_nogo2900,1,SROF018,-0.67448975,0,TRAINING,0,0,1,0,0
2,GO,,0,1,0,0,1720.568352,go3100_nogo2900,1,SROF018,-0.967421566,0,TRAINING,0,0,2,0,0
3,NOGO,,0,0,1,0,1743.248212,go3100_nogo2900,1,SROF018,-0.292931816,33.33333333,TRAINING,0,0,2,1,0
4,GO,,0,1,0,0,1763.827984,go3100_nogo2900,1,SROF018,-0.47585963,25,TRAINING,0,0,3,1,0
5,NOGO,0.435073853,0,0,0,1,1802.907581,go3100_nogo2900,1,SROF018,-1.15034938,20,TRAINING,0,0,3,1,1
6,NOGO,1.469572783,0,0,0,1,1829.527349,go3100_nogo2900,1,SROF018,-1.468988744,16.66666667,TRAINING,0,0,3,1,2
7,GO,,0,1,0,0,1855.327098,go3100_nogo2900,1,SROF018,-1.60019093,14.28571429,TRAINING,0,0,4,1,2
8,GO,1.675437212,1,0,0,0,1877.276876,go3100_nogo2900,1,SROF018,-0.993129114,25,TRAINING,0,1,4,1,2
9,GO,,0,1,0,0,1891.166734,go3100_nogo2900,1,SROF018,-1.110277972,22.22222222,TRAINING,0,1,5,1,2
10,NOGO,,0,0,1,0,1920.346462,go3100_nogo2900,1,SROF018,-0.791638608,30,TRAINING,0,1,5,2,2
11,GO,0.359127998,1,0,0,0,1937.586276,go3100_nogo2900,1,SROF018,-0.488776411,36.36363636,TRAINING,0,2,5,2,2
12,GO,,0,1,0,0,1971.645935,go3100_nogo2900,1,SROF018,-0.589455798,33.33333333,TRAINING,0,2,6,2,2
13,GO,0.286339998,1,0,0,0,1986.645801,go3100_nogo2900,1,SROF018,-0.385320466,38.46153846,TRAINING,0,3,6,2,2
14,GO,,0,1,0,0,2001.615675,go3100_nogo2900,1,SROF018,-0.472789121,35.71428571,TRAINING,0,3,7,2,2
15,GO,0.000293016,1,0,0,0,2052.525195,go3100_nogo2900,1,SROF018,-0.318639364,40,TRAINING,0,4,7,2,2
16,NOGO,,0,0,1,0,2074.595024,go3100_nogo2900,1,SROF018,-0.10821097,43.75,TRAINING,0,4,7,3,2
17,GO,0.02371192,1,0,0,0,2109.534709,go3100_nogo2900,1,SROF018,0.016400252,47.05882353,TRAINING,0,5,7,3,2
18,NOGO,0.350327969,0,0,0,1,2142.554367,go3100_nogo2900,1,SROF018,-0.194028142,44.44444444,TRAINING,0,5,7,3,3
19,GO,,0,1,0,0,2193.293874,go3100_nogo2900,1,SROF018,-0.271880005,42.10526316,TRAINING,0,5,8,3,3
20,GO,,0,1,0,0,2217.463596,go3100_nogo2900,1,SROF018,-0.340694827,40,TRAINING,0,5,9,3,3
21,GO,,0,1,0,0,2235.233448,go3100_nogo2900,1,SROF018,-0.402250065,38.0952381,TRAINING,0,5,10,3,3
22,NOGO,0.002178907,0,0,0,1,2246.873337,go3100_nogo2900,1,SROF018,-0.55956075,36.36363636,TRAINING,0,5,10,3,4
23,NOGO,0,0,0,0,1,2275.473238,go3100_nogo2900,1,SROF018,-0.684466212,34.7826087,TRAINING,0,5,10,3,5
24,NOGO,0,0,0,0,1,2305.122749,go3100_nogo2900,1,SROF018,-0.787570532,33.33333333,TRAINING,0,5,10,3,6
25,GO,0,1,0,0,0,2334.442453,go3100_nogo2900,1,SROF018,-0.684627377,36,TRAINING,0,6,10,3,6
26,NOGO,,0,0,1,0,2348.052378,go3100_nogo2900,1,SROF018,-0.529191028,38.46153846,TRAINING,0,6,10,4,6
27,GO,,0,1,0,0,2383.251984,go3100_nogo2900,1,SROF018,-0.585374535,37.03703704,TRAINING,0,6,11,4,6
28,GO,0.828104019,1,0,0,0,2395.521865,go3100_nogo2900,1,SROF018,-0.496878243,39.28571429,TRAINING,0,7,11,4,6
29,NOGO,0,0,0,0,1,2415.151735,go3100_nogo2900,1,SROF018,-0.585633489,37.93103448,TRAINING,0,7,11,4,7
30,GO,0,1,0,0,0,2510.460799,go3100_nogo2900,1,SROF018,-0.50775779,40,TRAINING,0,8,11,4,7
31,NOGO,,0,0,1,0,2527.100756,go3100_nogo2900,1,SROF018,-0.383146569,41.93548387,TRAINING,0,8,11,5,7
32,NOGO,,0,0,1,0,2542.100497,go3100_nogo2900,1,SROF018,-0.278760777,43.75,TRAINING,0,8,11,6,7
33,NOGO,,0,0,1,0,2558.79034,go3100_nogo2900,1,SROF018,-0.189118426,45.45454545,TRAINING,0,8,11,7,7
34,GO,,0,1,0,0,2576.980157,go3100_nogo2900,1,SROF018,-0.241040394,44.11764706,TRAINING,0,8,12,7,7
35,NOGO,0,0,0,0,1,2588.84009,go3100_nogo2900,1,SROF018,-0.319452807,42.85714286,TRAINING,0,8,12,7,8
36,NOGO,,0,0,1,0,2611.239867,go3100_nogo2900,1,SROF018,-0.241040394,44.44444444,TRAINING,0,8,12,8,8
37,GO,,0,1,0,0,2633.279635,go3100_nogo2900,1,SROF018,-0.288809355,43.24324324,TRAINING,0,8,13,8,8
38,NOGO,,0,0,1,0,2647.589527,go3100_nogo2900,1,SROF018,-0.219124435,44.73684211,TRAINING,0,8,13,9,8
39,NOGO,,0,0,1,0,2660.319401,go3100_nogo2900,1,SROF018,-0.156496503,46.15384615,TRAINING,0,8,13,10,8
40,GO,,0,1,0,0,2673.049318,go3100_nogo2900,1,SROF018,-0.200692246,45,TRAINING,0,8,14,10,8
41,NOGO,0.588359118,0,0,0,1,2688.20927,go3100_nogo2900,1,SROF018,-0.27029832,43.90243902,TRAINING,0,8,14,10,9
42,GO,,0,1,0,0,2719.75893,go3100_nogo2900,1,SROF018,-0.311388632,42.85714286,TRAINING,0,8,15,10,9
43,NOGO,0.047751904,0,0,0,1,2773.838386,go3100_nogo2900,1,SROF018,-0.37409541,41.86046512,TRAINING,0,8,15,10,10
44,GO,,0,1,0,0,2795.978131,go3100_nogo2900,1,SROF018,-0.412463129,40.90909091,TRAINING,0,8,16,10,10
45,GO,,0,1,0,0,2819.107904,go3100_nogo2900,1,SROF018,-0.448425483,40,TRAINING,0,8,17,10,10
46,GO,,0,1,0,0,2833.887816,go3100_nogo2900,1,SROF018,-0.482248215,39.13043478,TRAINING,0,8,18,10,10
47,NOGO,0.025596857,0,0,0,1,2858.407543,go3100_nogo2900,1,SROF018,-0.539247889,38.29787234,TRAINING,0,8,18,10,11
48,NOGO,0,0,0,0,1,2883.417449,go3100_nogo2900,1,SROF018,-0.591448697,37.5,TRAINING,0,8,18,10,12
49,NOGO,,0,0,1,0,2908.287082,go3100_nogo2900,1,SROF018,-0.534493395,38.7755102,TRAINING,0,8,18,11,12
50,NOGO,,0,0,1,0,2925.807039,go3100_nogo2900,1,SROF018,-0.482248215,40,TRAINING,0,8,18,12,12
51,GO,0.821645975,1,0,0,0,2946.846781,go3100_nogo2900,1,SROF018,-0.41441333,41.17647059,TRAINING,0,9,18,12,12
52,NOGO,,0,0,1,0,2964.216565,go3100_nogo2900,1,SROF018,-0.366190256,42.30769231,TRAINING,0,9,18,13,12
53,NOGO,,0,0,1,0,2982.786392,go3100_nogo2900,1,SROF018,-0.321441481,43.39622642,TRAINING,0,9,18,14,12
54,NOGO,,0,0,1,0,2996.576333,go3100_nogo2900,1,SROF018,-0.279723536,44.44444444,TRAINING,0,9,18,15,12
55,NOGO,,0,0,1,0,3012.86621,go3100_nogo2900,1,SROF018,-0.240672268,45.45454545,TRAINING,0,9,18,16,12
56,NOGO,0,0,0,0,1,3024.476043,go3100_nogo2900,1,SROF018,-0.288751983,44.64285714,TRAINING,0,9,18,16,13
57,NOGO,0.328066111,0,0,0,1,3048.015788,go3100_nogo2900,1,SROF018,-0.333466039,43.85964912,TRAINING,0,9,18,16,14
58,GO,,0,1,0,0,3081.865483,go3100_nogo2900,1,SROF018,-0.365640914,43.10344828,TRAINING,0,9,19,16,14
59,GO,,0,1,0,0,3095.115323,go3100_nogo2900,1,SROF018,-0.396093138,42.37288136,TRAINING,0,9,20,16,14
60,NOGO,,0,0,1,0,3109.135191,go3100_nogo2900,1,SROF018,-0.359270554,43.33333333,TRAINING,0,9,20,17,14
61,GO,0.378164053,1,0,0,0,3122.765067,go3100_nogo2900,1,SROF018,-0.298217346,44.26229508,TRAINING,0,10,20,17,14
62,NOGO,,0,0,1,0,3140.984876,go3100_nogo2900,1,SROF018,-0.263481246,45.16129032,TRAINING,0,10,20,18,14
63,NOGO,,0,0,1,0,3158.594732,go3100_nogo2900,1,SROF018,-0.230620203,46.03174603,TRAINING,0,10,20,19,14
64,NOGO,1.122840166,0,0,0,1,3181.814497,go3100_nogo2900,1,SROF018,-0.272257986,45.3125,TRAINING,0,10,20,19,15
65,NOGO,1.370952845,0,0,0,1,3213.074215,go3100_nogo2900,1,SROF018,-0.311353765,44.61538462,TRAINING,0,10,20,19,16
66,NOGO,0.274476051,0,0,0,1,3236.254054,go3100_nogo2900,1,SROF018,-0.348188605,43.93939394,TRAINING,0,10,20,19,17
67,GO,,0,1,0,0,3259.993751,go3100_nogo2900,1,SROF018,-0.37729791,43.28358209,TRAINING,0,10,21,19,17
68,GO,,0,1,0,0,3279.023575,go3100_nogo2900,1,SROF018,-0.404990506,42.64705882,TRAINING,0,10,22,19,17
69,NOGO,0.621186972,0,0,0,1,3302.113384,go3100_nogo2900,1,SROF018,-0.439801188,42.02898551,TRAINING,0,10,22,19,18
70,NOGO,,0,0,1,0,3358.902811,go3100_nogo2900,1,SROF018,-0.408472286,42.85714286,TRAINING,0,10,22,20,18
71,GO,1.987715006,1,0,0,0,3432.232431,go3100_nogo2900,1,SROF018,-0.352967304,43.66197183,TRAINING,0,11,22,20,18
72,NOGO,,0,0,1,0,3471.971886,go3100_nogo2900,1,SROF018,-0.323146725,44.44444444,TRAINING,0,11,22,21,18
73,GO,0,1,0,0,0,3493.241736,go3100_nogo2900,1,SROF018,-0.271968942,45.20547945,TRAINING,0,12,22,21,18
74,GO,,0,1,0,0,3511.301388,go3100_nogo2900,1,SROF018,-0.298693399,44.59459459,TRAINING,0,12,23,21,18
75,NOGO,0.409316063,0,0,0,1,3533.551205,go3100_nogo2900,1,SROF018,-0.331655403,44,TRAINING,0,12,23,21,19
76,NOGO,0.226913929,0,0,0,1,3564.420881,go3100_nogo2900,1,SROF018,-0.362985571,43.42105263,TRAINING,0,12,23,21,20
77,NOGO,,0,0,1,0,3640.530151,go3100_nogo2900,1,SROF018,-0.334504078,44.15584416,TRAINING,0,12,23,22,20
78,GO,,0,1,0,0,3652.520051,go3100_nogo2900,1,SROF018,-0.360044553,43.58974359,TRAINING,0,12,24,22,20
79,GO,,0,1,0,0,3666.209949,go3100_nogo2900,1,SROF018,-0.384494922,43.03797468,TRAINING,0,12,25,22,20
80,NOGO,,0,0,1,0,3726.14949,go3100_nogo2900,1,SROF018,-0.357264154,43.75,TRAINING,0,12,25,23,20
81,GO,1.53501606,1,0,0,0,3737.979275,go3100_nogo2900,1,SROF018,-0.310167792,44.44444444,TRAINING,0,13,25,23,20
82,GO,,0,1,0,0,3774.869021,go3100_nogo2900,1,SROF018,-0.33373825,43.90243902,TRAINING,0,13,26,23,20
83,GO,,0,1,0,0,3795.948763,go3100_nogo2900,1,SROF018,-0.356377023,43.37349398,TRAINING,0,13,27,23,20
84,NOGO,0.002927065,0,0,0,1,3812.258744,go3100_nogo2900,1,SROF018,-0.386202839,42.85714286,TRAINING,0,13,27,23,21
85,NOGO,,0,0,1,0,3841.808266,go3100_nogo2900,1,SROF018,-0.360105418,43.52941176,TRAINING,0,13,27,24,21
86,GO,0.007335901,1,0,0,0,3855.008134,go3100_nogo2900,1,SROF018,-0.316379813,44.18604651,TRAINING,0,14,27,24,21
87,GO,,0,1,0,0,3879.317957,go3100_nogo2900,1,SROF018,-0.338262402,43.67816092,TRAINING,0,14,28,24,21
88,NOGO,,0,0,1,0,3905.087716,go3100_nogo2900,1,SROF018,-0.313223405,44.31818182,TRAINING,0,14,28,25,21
89,GO,1.611227989,1,0,0,0,3916.747662,go3100_nogo2900,1,SROF018,-0.272323676,44.94382022,TRAINING,0,15,28,25,21
90,GO,,0,1,0,0,3930.4775,go3100_nogo2900,1,SROF018,-0.29349528,44.44444444,TRAINING,0,15,29,25,21
91,GO,0.070667982,1,0,0,0,3942.947322,go3100_nogo2900,1,SROF018,-0.25507934,45.05494505,TRAINING,0,16,29,25,21
92,NOGO,0.481363058,0,0,0,1,3974.027056,go3100_nogo2900,1,SROF018,-0.283535032,44.56521739,TRAINING,0,16,29,25,22
93,NOGO,0,0,0,0,1,4002.136761,go3100_nogo2900,1,SROF018,-0.310769434,44.08602151,TRAINING,0,16,29,25,23
94,GO,0.761849165,1,0,0,0,4026.36658,go3100_nogo2900,1,SROF018,-0.274482993,44.68085106,TRAINING,0,17,29,25,23
95,NOGO,,0,0,1,0,4038.816369,go3100_nogo2900,1,SROF018,-0.250391142,45.26315789,TRAINING,0,17,29,26,23
96,GO,0.833365917,1,0,0,0,4051.756377,go3100_nogo2900,1,SROF018,-0.216015171,45.83333333,TRAINING,0,18,29,26,23
97,NOGO,0.025646925,0,0,0,1,4073.156078,go3100_nogo2900,1,SROF018,-0.242115654,45.36082474,TRAINING,0,18,29,26,24
98,GO,,0,1,0,0,4096.615861,go3100_nogo2900,1,SROF018,-0.262749676,44.89795918,TRAINING,0,18,30,26,24
99,GO,,0,1,0,0,4109.355833,go3100_nogo2900,1,SROF018,-0.282683967,44.44444444,TRAINING,0,18,31,26,24
100,NOGO,0.152320147,0,0,0,1,4124.405642,go3100_nogo2900,1,SROF018,-0.307748817,44,TRAINING,0,18,31,26,25
101,GO,0.184326887,1,0,0,0,4149.965389,go3100_nogo2900,1,SROF018,-0.275202381,44.55445545,TRAINING,0,19,31,26,25
102,GO,0.300374031,1,0,0,0,4172.295135,go3100_nogo2900,1,SROF018,-0.244204394,45.09803922,TRAINING,0,20,31,26,25
103,NOGO,,0,0,1,0,4197.384882,go3100_nogo2900,1,SROF018,-0.220996404,45.63106796,TRAINING,0,20,31,27,25
104,NOGO,1.233131886,0,0,0,1,4210.824858,go3100_nogo2900,1,SROF018,-0.245097318,45.19230769,TRAINING,0,20,31,27,26
105,GO,,0,1,0,0,4246.484548,go3100_nogo2900,1,SROF018,-0.264477271,44.76190476,TRAINING,0,20,32,27,26
106,NOGO,,0,0,1,0,4260.1344,go3100_nogo2900,1,SROF018,-0.242098028,45.28301887,TRAINING,0,20,32,28,26
107,GO,,0,1,0,0,4284.144093,go3100_nogo2900,1,SROF018,-0.260862809,44.85981308,TRAINING,0,20,33,28,26
108,GO,0,1,0,0,0,4297.163942,go3100_nogo2900,1,SROF018,-0.231359565,45.37037037,TRAINING,0,21,33,28,26
109,GO,,0,1,0,0,4338.793599,go3100_nogo2900,1,SROF018,-0.249588152,44.95412844,TRAINING,0,21,34,28,26
110,GO,0,1,0,0,0,4350.943456,go3100_nogo2900,1,SROF018,-0.221403277,45.45454545,TRAINING,0,22,34,28,26
111,GO,,0,1,0,0,4392.033084,go3100_nogo2900,1,SROF018,-0.239124711,45.04504505,TRAINING,0,22,35,28,26
112,GO,0.798284054,1,0,0,0,4409.512981,go3100_nogo2900,1,SROF018,-0.212145788,45.53571429,TRAINING,0,23,35,28,26
113,GO,,0,1,0,0,4422.332756,go3100_nogo2900,1,SROF018,-0.229386901,45.13274336,TRAINING,0,23,36,28,26
114,NOGO,0.187233925,0,0,0,1,4461.782406,go3100_nogo2900,1,SROF018,-0.252595271,44.73684211,TRAINING,0,23,36,28,27
115,NOGO,,0,0,1,0,4493.302085,go3100_nogo2900,1,SROF018,-0.230987631,45.2173913,TRAINING,0,23,36,29,27
116,NOGO,1.936460018,0,0,0,1,4510.611959,go3100_nogo2900,1,SROF018,-0.253367203,44.82758621,TRAINING,0,23,36,29,28
117,NOGO,0.196060181,0,0,0,1,4549.121536,go3100_nogo2900,1,SROF018,-0.274977749,44.44444444,TRAINING,0,23,36,29,29
118,GO,,0,1,0,0,4572.921325,go3100_nogo2900,1,SROF018,-0.291731656,44.06779661,TRAINING,0,23,37,29,29
119,GO,,0,1,0,0,4604.171023,go3100_nogo2900,1,SROF018,-0.308023414,43.69747899,TRAINING,0,23,38,29,29
120,NOGO,1.866180182,0,0,0,1,4702.890076,go3100_nogo2900,1,SROF018,-0.328913502,43.33333333,TRAINING,0,23,38,29,30
121,GO,0.205913067,1,0,0,0,4729.929828,go3100_nogo2900,1,SROF018,-0.303106235,43.80165289,TRAINING,0,24,38,29,30
122,NOGO,0.678819895,0,0,0,1,4751.41973,go3100_nogo2900,1,SROF018,-0.323319985,43.44262295,TRAINING,0,24,38,29,31
123,GO,0.248793125,1,0,0,0,4793.219275,go3100_nogo2900,1,SROF018,-0.298497364,43.90243902,TRAINING,0,25,38,29,31
124,GO,,0,1,0,0,4815.449014,go3100_nogo2900,1,SROF018,-0.314413245,43.5483871,TRAINING,0,25,39,29,31
125,NOGO,0.006232023,0,0,0,1,4840.708774,go3100_nogo2900,1,SROF018,-0.33399086,43.2,TRAINING,0,25,39,29,32
126,NOGO,,0,0,1,0,4873.658603,go3100_nogo2900,1,SROF018,-0.313107661,43.65079365,TRAINING,0,25,39,30,32
127,GO,0.594295025,1,0,0,0,4892.028256,go3100_nogo2900,1,SROF018,-0.289225511,44.09448819,TRAINING,0,26,39,30,32
128,NOGO,,0,0,1,0,4906.128143,go3100_nogo2900,1,SROF018,-0.269011542,44.53125,TRAINING,0,26,39,31,32
129,GO,0.148175955,1,0,0,0,4918.658026,go3100_nogo2900,1,SROF018,-0.245977606,44.96124031,TRAINING,0,27,39,31,32
130,NOGO,,0,0,1,0,4938.917836,go3100_nogo2900,1,SROF018,-0.226393321,45.38461538,TRAINING,0,27,39,32,32
131,GO,,0,1,0,0,4957.367636,go3100_nogo2900,1,SROF018,-0.241944034,45.03816794,TRAINING,0,27,40,32,32
132,GO,1.373642921,1,0,0,0,4989.277351,go3100_nogo2900,1,SROF018,-0.219722916,45.45454545,TRAINING,0,28,40,32,32
133,GO,,0,1,0,0,5005.997209,go3100_nogo2900,1,SROF018,-0.234900818,45.11278195,TRAINING,0,28,41,32,32
134,GO,,0,1,0,0,5070.646518,go3100_nogo2900,1,SROF018,-0.249703177,44.7761194,TRAINING,0,28,42,32,32
135,GO,,0,1,0,0,5085.056434,go3100_nogo2900,1,SROF018,-0.264146977,44.44444444,TRAINING,0,28,43,32,32
136,NOGO,0.930233002,0,0,0,1,5102.276235,go3100_nogo2900,1,SROF018,-0.283137726,44.11764706,TRAINING,0,28,43,32,33
137,GO,1.666627169,1,0,0,0,5130.905984,go3100_nogo2900,1,SROF018,-0.261714796,44.52554745,TRAINING,0,29,43,32,33
138,GO,,0,1,0,0,5150.435808,go3100_nogo2900,1,SROF018,-0.275837217,44.20289855,TRAINING,0,29,44,32,33
139,GO,0.003612995,1,0,0,0,5166.405645,go3100_nogo2900,1,SROF018,-0.255118768,44.60431655,TRAINING,0,30,44,32,33
140,GO,,0,1,0,0,5183.845484,go3100_nogo2900,1,SROF018,-0.268933556,44.28571429,TRAINING,0,30,45,32,33
141,NOGO,0.156643152,0,0,0,1,5201.705294,go3100_nogo2900,1,SROF018,-0.2873639,43.97163121,TRAINING,0,30,45,32,34
142,GO,,0,1,0,0,5231.304985,go3100_nogo2900,1,SROF018,-0.300865858,43.66197183,TRAINING,0,30,46,32,34
143,NOGO,0,0,0,0,1,5244.454916,go3100_nogo2900,1,SROF018,-0.31876624,43.35664336,TRAINING,0,30,46,32,35
144,GO,,0,1,0,0,5298.504448,go3100_nogo2900,1,SROF018,-0.331968332,43.05555556,TRAINING,0,30,47,32,35
145,NOGO,0.070472956,0,0,0,1,5347.493952,go3100_nogo2900,1,SROF018,-0.34936679,42.75862069,TRAINING,0,30,47,32,36
146,NOGO,,0,0,1,0,5383.943541,go3100_nogo2900,1,SROF018,-0.330386174,43.15068493,TRAINING,0,30,47,33,36
147,GO,,0,1,0,0,5414.353283,go3100_nogo2900,1,SROF018,-0.343300589,42.85714286,TRAINING,0,30,48,33,36
148,GO,1.142981052,1,0,0,0,5486.672651,go3100_nogo2900,1,SROF018,-0.323297728,43.24324324,TRAINING,0,31,48,33,36
149,NOGO,,0,0,1,0,5501.132547,go3100_nogo2900,1,SROF018,-0.304870371,43.62416107,TRAINING,0,31,48,34,36
150,GO,0.027482986,1,0,0,0,5520.682259,go3100_nogo2900,1,SROF018,-0.285464825,44,TRAINING,0,32,48,34,36
151,NOGO,,0,0,1,0,5546.432078,go3100_nogo2900,1,SROF018,-0.267560884,44.37086093,TRAINING,0,32,48,35,36
152,NOGO,,0,0,1,0,5577.311664,go3100_nogo2900,1,SROF018,-0.250152864,44.73684211,TRAINING,0,32,48,36,36
153,NOGO,0.3890481,0,0,0,1,5591.141714,go3100_nogo2900,1,SROF018,-0.267090351,44.44444444,TRAINING,0,32,48,36,37
154,NOGO,0,0,0,0,1,5615.891289,go3100_nogo2900,1,SROF018,-0.283580799,44.15584416,TRAINING,0,32,48,36,38
155,NOGO,,0,0,1,0,5657.800917,go3100_nogo2900,1,SROF018,-0.266644587,44.51612903,TRAINING,0,32,48,37,38
156,GO,1.210564137,1,0,0,0,5675.86077,go3100_nogo2900,1,SROF018,-0.247802763,44.87179487,TRAINING,0,33,48,37,38
157,GO,0.3289361,1,0,0,0,5703.310532,go3100_nogo2900,1,SROF018,-0.229493853,45.22292994,TRAINING,0,34,48,37,38
158,GO,,0,1,0,0,5733.420216,go3100_nogo2900,1,SROF018,-0.242199677,44.93670886,TRAINING,0,34,49,37,38
159,GO,0.002176046,1,0,0,0,5745.170095,go3100_nogo2900,1,SROF018,-0.224408284,45.28301887,TRAINING,0,35,49,37,38
160,NOGO,,0,0,1,0,5766.159951,go3100_nogo2900,1,SROF018,-0.207916561,45.625,TRAINING,0,35,49,38,38
161,NOGO,0.028694868,0,0,0,1,5792.499676,go3100_nogo2900,1,SROF018,-0.223985383,45.34161491,TRAINING,0,35,49,38,39
162,GO,,0,1,0,0,5818.069412,go3100_nogo2900,1,SROF018,-0.236440892,45.0617284,TRAINING,0,35,50,38,39
163,GO,,0,1,0,0,5841.649312,go3100_nogo2900,1,SROF018,-0.248643162,44.78527607,TRAINING,0,35,51,38,39
164,GO,0,1,0,0,0,5949.388199,go3100_nogo2900,1,SROF018,-0.231353397,45.12195122,TRAINING,0,36,51,38,39
165,NOGO,,0,0,1,0,6204.245714,go3100_nogo2900,1,SROF018,-0.215284576,45.45454545,TRAINING,0,36,51,39,39
166,NOGO,1.140918016,0,0,0,1,6217.02559,go3100_nogo2900,1,SROF018,-0.230951643,45.18072289,TRAINING,0,36,51,39,40
167,GO,0.180598974,1,0,0,0,6254.795181,go3100_nogo2900,1,SROF018,-0.21411243,45.50898204,TRAINING,0,37,51,39,40
168,NOGO,1.038048029,0,0,0,1,6270.265058,go3100_nogo2900,1,SROF018,-0.229396331,45.23809524,TRAINING,0,37,51,39,41
169,GO,0,1,0,0,0,6308.394742,go3100_nogo2900,1,SROF018,-0.212985591,45.56213018,TRAINING,0,38,51,39,41
170,GO,,0,1,0,0,6327.78451,go3100_nogo2900,1,SROF018,-0.224979111,45.29411765,TRAINING,0,38,52,39,41
171,NOGO,,0,0,1,0,6368.284101,go3100_nogo2900,1,SROF018,-0.209313056,45.61403509,TRAINING,0,38,52,40,41
172,GO,,0,1,0,0,6407.953763,go3100_nogo2900,1,SROF018,-0.221072906,45.34883721,TRAINING,0,38,53,40,41
173,GO,0.282603979,1,0,0,0,6487.953037,go3100_nogo2900,1,SROF018,-0.205089368,45.66473988,TRAINING,0,39,53,40,41
174,NOGO,1.032001019,0,0,0,1,6521.822681,go3100_nogo2900,1,SROF018,-0.220009387,45.40229885,TRAINING,0,39,53,40,42
175,NOGO,0.00205493,0,0,0,1,6550.122495,go3100_nogo2900,1,SROF018,-0.234580631,45.14285714,TRAINING,0,39,53,40,43
176,NOGO,0,0,0,0,1,6665.131424,go3100_nogo2900,1,SROF018,-0.248818179,44.88636364,TRAINING,0,39,53,40,44
177,GO,0.002307892,1,0,0,0,6692.631118,go3100_nogo2900,1,SROF018,-0.23322156,45.19774011,TRAINING,0,40,53,40,44
178,NOGO,0.723180056,0,0,0,1,6725.040793,go3100_nogo2900,1,SROF018,-0.24713954,44.94382022,TRAINING,0,40,53,40,45
179,NOGO,0,0,0,0,1,6815.829941,go3100_nogo2900,1,SROF018,-0.260751204,44.69273743,TRAINING,0,40,53,40,46
180,GO,,0,1,0,0,6838.619717,go3100_nogo2900,1,SROF018,-0.272305147,44.44444444,TRAINING,0,40,54,40,46
181,GO,0,1,0,0,0,6854.359565,go3100_nogo2900,1,SROF018,-0.257086097,44.75138122,TRAINING,0,41,54,40,46
182,NOGO,,0,0,1,0,6875.919375,go3100_nogo2900,1,SROF018,-0.241814052,45.05494505,TRAINING,0,41,54,41,46
183,NOGO,0,0,0,0,1,6920.709007,go3100_nogo2900,1,SROF018,-0.255136603,44.80874317,TRAINING,0,41,54,41,47
184,NOGO,,0,0,1,0,6974.438414,go3100_nogo2900,1,SROF018,-0.24022765,45.10869565,TRAINING,0,41,54,42,47
185,GO,,0,1,0,0,7025.567966,go3100_nogo2900,1,SROF018,-0.251573582,44.86486486,TRAINING,0,41,55,42,47
186,GO,0,1,0,0,0,7669.681848,go3100_nogo2900,1,SROF018,-0.236714291,45.16129032,TRAINING,0,42,55,42,47
187,GO,1.156729221,1,0,0,0,7687.281681,go3100_nogo2900,1,SROF018,-0.222190895,45.45454545,TRAINING,0,43,55,42,47
188,NOGO,0.618915081,0,0,0,1,7736.201219,go3100_nogo2900,1,SROF018,-0.235236347,45.21276596,TRAINING,0,43,55,42,48
189,GO,0.88299799,1,0,0,0,7760.090966,go3100_nogo2900,1,SROF018,-0.22103458,45.5026455,TRAINING,0,44,55,42,48
190,GO,,0,1,0,0,7784.450746,go3100_nogo2900,1,SROF018,-0.232193606,45.26315789,TRAINING,0,44,56,42,48
191,NOGO,0.902937889,0,0,0,1,7818.770423,go3100_nogo2900,1,SROF018,-0.244969084,45.02617801,TRAINING,0,44,56,42,49
192,NOGO,,0,0,1,0,7852.100127,go3100_nogo2900,1,SROF018,-0.230410524,45.3125,TRAINING,0,44,56,43,49
193,GO,,0,1,0,0,7884.44979,go3100_nogo2900,1,SROF018,-0.241368835,45.07772021,TRAINING,0,44,57,43,49
194,GO,0.207141161,1,0,0,0,7944.779311,go3100_nogo2900,1,SROF018,-0.227487252,45.36082474,TRAINING,0,45,57,43,49
195,GO,,0,1,0,0,7958.299225,go3100_nogo2900,1,SROF018,-0.238257975,45.12820513,TRAINING,0,45,58,43,49
196,NOGO,0.087018013,0,0,0,1,8030.688409,go3100_nogo2900,1,SROF018,-0.250778503,44.89795918,TRAINING,0,45,58,43,50
197,NOGO,0,0,0,0,1,8129.677495,go3100_nogo2900,1,SROF018,-0.263049637,44.67005076,TRAINING,0,45,58,43,51
198,GO,0,1,0,0,0,8151.567281,go3100_nogo2900,1,SROF018,-0.249468187,44.94949495,TRAINING,0,46,58,43,51
199,NOGO,1.474756002,0,0,0,1,8181.776982,go3100_nogo2900,1,SROF018,-0.261499108,44.72361809,TRAINING,0,46,58,43,52
200,NOGO,0.09708786,0,0,0,1,8207.576738,go3100_nogo2900,1,SROF018,-0.273298505,44.5,TRAINING,0,46,58,43,53
201,NOGO,,0,0,1,0,8253.81628,go3100_nogo2900,1,SROF018,-0.25908484,44.7761194,TRAINING,0,46,58,44,53
202,GO,,0,1,0,0,8268.776157,go3100_nogo2900,1,SROF018,-0.269674259,44.55445545,TRAINING,0,46,59,44,53
203,NOGO,0.026606083,0,0,0,1,8282.936043,go3100_nogo2900,1,SROF018,-0.281256111,44.33497537,TRAINING,0,46,59,44,54
204,NOGO,1.14359498,0,0,0,1,8402.914826,go3100_nogo2900,1,SROF018,-0.292622861,44.11764706,TRAINING,0,46,59,44,55
205,GO,1.167726994,1,0,0,0,8459.324325,go3100_nogo2900,1,SROF018,-0.27932886,44.3902439,TRAINING,0,47,59,44,55
206,NOGO,1.15909791,0,0,0,1,8497.554023,go3100_nogo2900,1,SROF018,-0.290487886,44.17475728,TRAINING,0,47,59,44,56
207,GO,0.763241053,1,0,0,0,8545.533503,go3100_nogo2900,1,SROF018,-0.277464276,44.44444444,TRAINING,0,48,59,44,56
208,NOGO,,0,0,1,0,8560.243352,go3100_nogo2900,1,SROF018,-0.263576558,44.71153846,TRAINING,0,48,59,45,56
209,NOGO,0.679687977,0,0,0,1,8631.742647,go3100_nogo2900,1,SROF018,-0.274541004,44.49760766,TRAINING,0,48,59,45,57
210,NOGO,,0,0,1,0,8659.22247,go3100_nogo2900,1,SROF018,-0.260953766,44.76190476,TRAINING,0,48,59,46,57
211,NOGO,0.005095959,0,0,0,1,8703.612163,go3100_nogo2900,1,SROF018,-0.271730276,44.54976303,TRAINING,0,48,59,46,58
212,GO,,0,1,0,0,8730.951804,go3100_nogo2900,1,SROF018,-0.282149531,44.33962264,TRAINING,0,48,60,46,58
213,NOGO,,0,0,1,0,8844.490706,go3100_nogo2900,1,SROF018,-0.268850066,44.60093897,TRAINING,0,48,60,47,58
214,GO,0.446022987,1,0,0,0,8861.360565,go3100_nogo2900,1,SROF018,-0.256091116,44.85981308,TRAINING,0,49,60,47,58
215,GO,0.775708914,1,0,0,0,8945.56976,go3100_nogo2900,1,SROF018,-0.243581946,45.11627907,TRAINING,0,50,60,47,58
216,GO,,0,1,0,0,9475.094711,go3100_nogo2900,1,SROF018,-0.253835633,44.90740741,TRAINING,0,50,61,47,58
217,NOGO,,0,0,1,0,9521.004287,go3100_nogo2900,1,SROF018,-0.240807161,45.16129032,TRAINING,0,50,61,48,58
218,NOGO,,0,0,1,0,9553.124018,go3100_nogo2900,1,SROF018,-0.228039319,45.41284404,TRAINING,0,50,61,49,58
219,NOGO,0.807348967,0,0,0,1,9580.65373,go3100_nogo2900,1,SROF018,-0.238643357,45.20547945,TRAINING,0,50,61,49,59
220,GO,0.343200922,1,0,0,0,9683.64274,go3100_nogo2900,1,SROF018,-0.226378635,45.45454545,TRAINING,0,51,61,49,59
221,NOGO,0.200605154,0,0,0,1,9746.562209,go3100_nogo2900,1,SROF018,-0.236802488,45.24886878,TRAINING,0,51,61,49,60
222,GO,0.155333996,1,0,0,0,9893.730783,go3100_nogo2900,1,SROF018,-0.224769207,45.4954955,TRAINING,0,52,61,49,60
223,NOGO,,0,0,1,0,10124.87877,go3100_nogo2900,1,SROF018,-0.212260036,45.73991031,TRAINING,0,52,61,50,60
224,GO,,0,1,0,0,10144.74835,go3100_nogo2900,1,SROF018,-0.222352658,45.53571429,TRAINING,0,52,62,50,60
225,NOGO,0.101499081,0,0,0,1,10206.12783,go3100_nogo2900,1,SROF018,-0.232606345,45.33333333,TRAINING,0,52,62,50,61
226,GO,0.109035015,1,0,0,0,10227.97757,go3100_nogo2900,1,SROF018,-0.220799506,45.57522124,TRAINING,0,53,62,50,61
227,GO,,0,1,0,0,10263.07727,go3100_nogo2900,1,SROF018,-0.230732423,45.37444934,TRAINING,0,53,63,50,61
228,NOGO,,0,0,1,0,10310.05677,go3100_nogo2900,1,SROF018,-0.218467701,45.61403509,TRAINING,0,53,63,51,61
229,GO,,0,1,0,0,10351.11638,go3100_nogo2900,1,SROF018,-0.228242591,45.41484716,TRAINING,0,53,64,51,61
230,NOGO,0.621057034,0,0,0,1,10363.53629,go3100_nogo2900,1,SROF018,-0.238331564,45.2173913,TRAINING,0,53,64,51,62
231,NOGO,,0,0,1,0,10463.7153,go3100_nogo2900,1,SROF018,-0.226301931,45.45454545,TRAINING,0,53,64,52,62
232,GO,0,1,0,0,0,10478.23517,go3100_nogo2900,1,SROF018,-0.214716467,45.68965517,TRAINING,0,54,64,52,62
233,GO,0.649778843,1,0,0,0,10499.72505,go3100_nogo2900,1,SROF018,-0.203337896,45.92274678,TRAINING,0,55,64,52,62
234,GO,0.886419058,1,0,0,0,10542.31459,go3100_nogo2900,1,SROF018,-0.192159284,46.15384615,TRAINING,0,56,64,52,62
235,NOGO,,0,0,1,0,10569.88433,go3100_nogo2900,1,SROF018,-0.180352445,46.38297872,TRAINING,0,56,64,53,62
236,GO,,0,1,0,0,10880.61144,go3100_nogo2900,1,SROF018,-0.189983366,46.18644068,TRAINING,0,56,65,53,62
237,NOGO,0,0,0,0,1,11024.92008,go3100_nogo2900,1,SROF018,-0.199916283,45.99156118,TRAINING,0,56,65,53,63
238,GO,0,1,0,0,0,11060.46972,go3100_nogo2900,1,SROF018,-0.188933415,46.21848739,TRAINING,0,57,65,53,63
239,NOGO,1.197504997,0,0,0,1,11084.50952,go3100_nogo2900,1,SROF018,-0.198708305,46.0251046,TRAINING,0,57,65,53,64
240,NOGO,0.002310038,0,0,0,1,11137.35916,go3100_nogo2900,1,SROF018,-0.208329827,45.83333333,TRAINING,0,57,65,53,65
241,GO,1.284650087,1,0,0,0,11198.08843,go3100_nogo2900,1,SROF018,-0.197533708,46.05809129,TRAINING,0,58,65,53,65
242,NOGO,,0,0,1,0,11214.01827,go3100_nogo2900,1,SROF018,-0.185951773,46.28099174,TRAINING,0,58,65,54,65
243,GO,0,1,0,0,0,11228.79821,go3100_nogo2900,1,SROF018,-0.175336449,46.50205761,TRAINING,0,59,65,54,65
244,NOGO,,0,0,1,0,11251.91792,go3100_nogo2900,1,SROF018,-0.163961005,46.72131148,TRAINING,0,59,65,55,65
245,NOGO,0,0,0,0,1,11323.7573,go3100_nogo2900,1,SROF018,-0.173440733,46.53061224,TRAINING,0,59,65,55,66
246,NOGO,,0,0,1,0,11361.11693,go3100_nogo2900,1,SROF018,-0.162267838,46.74796748,TRAINING,0,59,65,56,66
247,NOGO,0.251235962,0,0,0,1,11396.15658,go3100_nogo2900,1,SROF018,-0.171606557,46.55870445,TRAINING,0,59,65,56,67
248,GO,0.429747105,1,0,0,0,11430.87624,go3100_nogo2900,1,SROF018,-0.161166354,46.77419355,TRAINING,0,60,65,56,67
249,GO,0.391381025,1,0,0,0,11463.81602,go3100_nogo2900,1,SROF018,-0.150895863,46.98795181,TRAINING,0,61,65,56,67
250,GO,,0,1,0,0,11493.87564,go3100_nogo2900,1,SROF018,-0.160388302,46.8,TRAINING,0,61,66,56,67
251,NOGO,0.41565299,0,0,0,1,11509.62546,go3100_nogo2900,1,SROF018,-0.169587091,46.61354582,TRAINING,0,61,66,56,68
252,NOGO,0.579540014,0,0,0,1,11573.73483,go3100_nogo2900,1,SROF018,-0.178649839,46.42857143,TRAINING,0,61,66,56,69
253,NOGO,0.270809889,0,0,0,1,11674.7039,go3100_nogo2900,1,SROF018,-0.187580275,46.24505929,TRAINING,0,61,66,56,70
254,GO,1.083568096,1,0,0,0,11697.82387,go3100_nogo2900,1,SROF018,-0.177475359,46.45669291,TRAINING,0,62,66,56,70
255,GO,,0,1,0,0,11712.7436,go3100_nogo2900,1,SROF018,-0.186826191,46.2745098,TRAINING,0,62,67,56,70
256,NOGO,0.074708223,0,0,0,1,11740.19334,go3100_nogo2900,1,SROF018,-0.195627895,46.09375,TRAINING,0,62,67,56,71
257,NOGO,,0,0,1,0,11765.0431,go3100_nogo2900,1,SROF018,-0.184663814,46.30350195,TRAINING,0,62,67,57,71
258,GO,0.001158953,1,0,0,0,11783.71284,go3100_nogo2900,1,SROF018,-0.174719221,46.51162791,TRAINING,0,63,67,57,71
259,NOGO,,0,0,1,0,11808.14261,go3100_nogo2900,1,SROF018,-0.163939827,46.71814672,TRAINING,0,63,67,58,71
260,GO,0,1,0,0,0,11901.75174,go3100_nogo2900,1,SROF018,-0.154149612,46.92307692,TRAINING,0,64,67,58,71
261,NOGO,0,0,0,0,1,11942.19135,go3100_nogo2900,1,SROF018,-0.162833265,46.74329502,TRAINING,0,64,67,58,72
262,GO,0,1,0,0,0,11967.93118,go3100_nogo2900,1,SROF018,-0.153192945,46.94656489,TRAINING,0,65,67,58,72
263,NOGO,0.062399864,0,0,0,1,12001.62085,go3100_nogo2900,1,SROF018,-0.161754937,46.76806084,TRAINING,0,65,67,58,73
264,NOGO,0.331123114,0,0,0,1,12023.3407,go3100_nogo2900,1,SROF018,-0.170198428,46.59090909,TRAINING,0,65,67,58,74
265,GO,0,1,0,0,0,12056.33031,go3100_nogo2900,1,SROF018,-0.16070371,46.79245283,TRAINING,0,66,67,58,74
266,NOGO,,0,0,1,0,12081.46014,go3100_nogo2900,1,SROF018,-0.150113027,46.9924812,TRAINING,0,66,67,59,74
267,NOGO,0.340665102,0,0,0,1,12122.20981,go3100_nogo2900,1,SROF018,-0.158444665,46.8164794,TRAINING,0,66,67,59,75
268,NOGO,0,0,0,0,1,12153.43937,go3100_nogo2900,1,SROF018,-0.166663912,46.64179104,TRAINING,0,66,67,59,76
269,GO,0.21837306,1,0,0,0,12206.40895,go3100_nogo2900,1,SROF018,-0.157310685,46.8401487,TRAINING,0,67,67,59,76
270,GO,0,1,0,0,0,12227.53874,go3100_nogo2900,1,SROF018,-0.148095009,47.03703704,TRAINING,0,68,67,59,76
271,NOGO,0,0,0,0,1,12309.00806,go3100_nogo2900,1,SROF018,-0.156204673,46.86346863,TRAINING,0,68,67,59,77
272,GO,0,1,0,0,0,12358.86747,go3100_nogo2900,1,SROF018,-0.147122771,47.05882353,TRAINING,0,69,67,59,77
273,NOGO,0,0,0,0,1,12381.92727,go3100_nogo2900,1,SROF018,-0.155125558,46.88644689,TRAINING,0,69,67,59,78
274,GO,0,1,0,0,0,12409.17702,go3100_nogo2900,1,SROF018,-0.146173805,47.08029197,TRAINING,0,70,67,59,78
275,GO,,0,1,0,0,12422.71687,go3100_nogo2900,1,SROF018,-0.155388862,46.90909091,TRAINING,0,70,68,59,78
276,GO,,0,1,0,0,12474.89636,go3100_nogo2900,1,SROF018,-0.164470773,46.73913043,TRAINING,0,70,69,59,78
277,GO,0.796404123,1,0,0,0,12489.45629,go3100_nogo2900,1,SROF018,-0.155644694,46.93140794,TRAINING,0,71,69,59,78
278,NOGO,,0,0,1,0,12505.43609,go3100_nogo2900,1,SROF018,-0.145240403,47.12230216,TRAINING,0,71,69,60,78
279,NOGO,0.287680864,0,0,0,1,12522.47593,go3100_nogo2900,1,SROF018,-0.153142774,46.95340502,TRAINING,0,71,69,60,79
280,NOGO,0.819584131,0,0,0,1,12579.22538,go3100_nogo2900,1,SROF018,-0.160943514,46.78571429,TRAINING,0,71,69,60,80
281,GO,0,1,0,0,0,12604.0352,go3100_nogo2900,1,SROF018,-0.152240393,46.97508897,TRAINING,0,72,69,60,80
282,NOGO,1.871979952,0,0,0,1,12623.87494,go3100_nogo2900,1,SROF018,-0.159941924,46.80851064,TRAINING,0,72,69,60,81
283,NOGO,0.253690958,0,0,0,1,12662.61453,go3100_nogo2900,1,SROF018,-0.16754658,46.64310954,TRAINING,0,72,69,60,82
284,NOGO,0.15714407,0,0,0,1,12696.46425,go3100_nogo2900,1,SROF018,-0.175056618,46.47887324,TRAINING,0,72,69,60,83
285,NOGO,,0,0,1,0,12904.8023,go3100_nogo2900,1,SROF018,-0.1648372,46.66666667,TRAINING,0,72,69,61,83
286,NOGO,0,0,0,0,1,14112.31101,go3100_nogo2900,1,SROF018,-0.172258922,46.5034965,TRAINING,0,72,69,61,84
287,NOGO,1.231250048,0,0,0,1,14134.09074,go3100_nogo2900,1,SROF018,-0.179590407,46.34146341,TRAINING,0,72,69,61,85
288,GO,0.844912052,1,0,0,0,14189.74033,go3100_nogo2900,1,SROF018,-0.171007047,46.52777778,TRAINING,0,73,69,61,85
289,NOGO,0.491500854,0,0,0,1,14209.21001,go3100_nogo2900,1,SROF018,-0.178250326,46.36678201,TRAINING,0,73,69,61,86
290,GO,0.664047956,1,0,0,0,14233.03983,go3100_nogo2900,1,SROF018,-0.169783651,46.55172414,TRAINING,0,74,69,61,86
291,NOGO,0.376404047,0,0,0,1,14276.09943,go3100_nogo2900,1,SROF018,-0.176940687,46.39175258,TRAINING,0,74,69,61,87
292,NOGO,0.188497066,0,0,0,1,14302.45923,go3100_nogo2900,1,SROF018,-0.18401338,46.23287671,TRAINING,0,74,69,61,88
293,NOGO,0.408354998,0,0,0,1,14328.00905,go3100_nogo2900,1,SROF018,-0.191003568,46.07508532,TRAINING,0,74,69,61,89
294,NOGO,1.650257826,0,0,0,1,14357.81879,go3100_nogo2900,1,SROF018,-0.197913033,45.91836735,TRAINING,0,74,69,61,90
295,GO,0.470250845,1,0,0,0,14382.46868,go3100_nogo2900,1,SROF018,-0.189560085,46.10169492,TRAINING,0,75,69,61,90
296,GO,0.003024101,1,0,0,0,14400.85821,go3100_nogo2900,1,SROF018,-0.181318017,46.28378378,TRAINING,0,76,69,61,90
297,GO,0.480734825,1,0,0,0,9.193372011,go3100_nogo2900,2,SROF018,-0.173184084,46.46464646,TRAINING,0,77,69,61,90
298,NOGO,1.129077196,0,0,0,1,18.75332999,go3100_nogo2900,2,SROF018,-0.180014548,46.30872483,TRAINING,0,77,69,61,91
299,NOGO,0.164108992,0,0,0,1,44.04299903,go3100_nogo2900,2,SROF018,-0.186767681,46.15384615,TRAINING,0,77,69,61,92
300,GO,0,1,0,0,0,65.95279408,go3100_nogo2900,2,SROF018,-0.178739241,46.33333333,TRAINING,0,78,69,61,92
301,NOGO,0,0,0,0,1,80.35264397,go3100_nogo2900,2,SROF018,-0.185416662,46.17940199,TRAINING,0,78,69,61,93
302,NOGO,0.162512779,0,0,0,1,107.5724401,go3100_nogo2900,2,SROF018,-0.192019938,46.02649007,TRAINING,0,78,69,61,94
303,NOGO,0.192933083,0,0,0,1,146.5420451,go3100_nogo2900,2,SROF018,-0.198550592,45.87458746,TRAINING,0,78,69,61,95
304,GO,0.436073065,1,0,0,0,170.3018219,go3100_nogo2900,2,SROF018,-0.190625097,46.05263158,TRAINING,0,79,69,61,95
305,NOGO,0.853946924,0,0,0,1,188.0116141,go3100_nogo2900,2,SROF018,-0.197084605,45.90163934,TRAINING,0,79,69,61,96
306,NOGO,0,0,0,0,1,212.3313961,go3100_nogo2900,2,SROF018,-0.203474397,45.75163399,TRAINING,0,79,69,61,97
307,GO,0.273064137,1,0,0,0,234.361177,go3100_nogo2900,2,SROF018,-0.195649389,45.92833876,TRAINING,0,80,69,61,97
308,NOGO,,0,0,1,0,255.1909649,go3100_nogo2900,2,SROF018,-0.185650953,46.1038961,TRAINING,0,80,69,62,97
309,NOGO,,0,0,1,0,274.040797,go3100_nogo2900,2,SROF018,-0.175803896,46.27831715,TRAINING,0,80,69,63,97
310,GO,0.098123074,1,0,0,0,292.790647,go3100_nogo2900,2,SROF018,-0.168077005,46.4516129,TRAINING,0,81,69,63,97
311,GO,,0,1,0,0,312.890496,go3100_nogo2900,2,SROF018,-0.1770183,46.3022508,TRAINING,0,81,70,63,97
312,GO,0.306231976,1,0,0,0,349.020123,go3100_nogo2900,2,SROF018,-0.169385391,46.47435897,TRAINING,0,82,70,63,97
313,GO,0.712036848,1,0,0,0,370.069917,go3100_nogo2900,2,SROF018,-0.161845983,46.64536741,TRAINING,0,83,70,63,97
314,NOGO,0,0,0,0,1,431.5993149,go3100_nogo2900,2,SROF018,-0.168176979,46.49681529,TRAINING,0,83,70,63,98
315,NOGO,0,0,0,0,1,459.6793551,go3100_nogo2900,2,SROF018,-0.174441099,46.34920635,TRAINING,0,83,70,63,99
316,NOGO,0,0,0,0,1,531.568495,go3100_nogo2900,2,SROF018,-0.180639649,46.20253165,TRAINING,0,83,70,63,100
317,GO,,0,1,0,0,569.0582561,go3100_nogo2900,2,SROF018,-0.189453515,46.05678233,TRAINING,0,83,71,63,100
318,NOGO,0,0,0,0,1,587.0079021,go3100_nogo2900,2,SROF018,-0.195587764,45.91194969,TRAINING,0,83,71,63,101
319,NOGO,0,0,0,0,1,615.4475501,go3100_nogo2900,2,SROF018,-0.201658942,45.76802508,TRAINING,0,83,71,63,102
320,GO,1.048267841,1,0,0,0,639.027416,go3100_nogo2900,2,SROF018,-0.194209019,45.9375,TRAINING,0,84,71,63,102
321,GO,,0,1,0,0,656.3872499,go3100_nogo2900,2,SROF018,-0.202900779,45.79439252,TRAINING,0,84,72,63,102
322,NOGO,0.131031036,0,0,0,1,671.3070199,go3100_nogo2900,2,SROF018,-0.208910085,45.65217391,TRAINING,0,84,72,63,103
323,GO,,0,1,0,0,705.9967151,go3100_nogo2900,2,SROF018,-0.217484715,45.51083591,TRAINING,0,84,73,63,103
324,NOGO,0.691228867,0,0,0,1,721.1666131,go3100_nogo2900,2,SROF018,-0.223433314,45.37037037,TRAINING,0,84,73,63,104
325,GO,0.439867973,1,0,0,0,746.3964581,go3100_nogo2900,2,SROF018,-0.216069138,45.53846154,TRAINING,0,85,73,63,104
326,NOGO,0,0,0,0,1,764.6162109,go3100_nogo2900,2,SROF018,-0.221958161,45.39877301,TRAINING,0,85,73,63,105
327,GO,0,1,0,0,0,789.486084,go3100_nogo2900,2,SROF018,-0.214680994,45.56574924,TRAINING,0,86,73,63,105
328,GO,0,1,0,0,0,816.885757,go3100_nogo2900,2,SROF018,-0.207488922,45.73170732,TRAINING,0,87,73,63,105
329,NOGO,0,0,0,0,1,838.1755481,go3100_nogo2900,2,SROF018,-0.213319472,45.59270517,TRAINING,0,87,73,63,106
330,GO,0,1,0,0,0,877.2551022,go3100_nogo2900,2,SROF018,-0.206210644,45.75757576,TRAINING,0,88,73,63,106
331,GO,,0,1,0,0,908.604959,go3100_nogo2900,2,SROF018,-0.214664596,45.61933535,TRAINING,0,88,74,63,106
332,NOGO,0.848785877,0,0,0,1,929.4446352,go3100_nogo2900,2,SROF018,-0.220437745,45.48192771,TRAINING,0,88,74,63,107
333,NOGO,0,0,0,0,1,960.8843391,go3100_nogo2900,2,SROF018,-0.226154535,45.34534535,TRAINING,0,88,74,63,108
334,GO,,0,1,0,0,987.8340671,go3100_nogo2900,2,SROF018,-0.234497826,45.20958084,TRAINING,0,88,75,63,108
335,NOGO,0.031582117,0,0,0,1,1011.303855,go3100_nogo2900,2,SROF018,-0.240159274,45.07462687,TRAINING,0,88,75,63,109
336,GO,0,1,0,0,0,1039.223573,go3100_nogo2900,2,SROF018,-0.233128309,45.23809524,TRAINING,0,89,75,63,109
337,GO,0,1,0,0,0,1065.613361,go3100_nogo2900,2,SROF018,-0.22617688,45.40059347,TRAINING,0,90,75,63,109
338,NOGO,0.002219915,0,0,0,1,1105.882963,go3100_nogo2900,2,SROF018,-0.231783974,45.26627219,TRAINING,0,90,75,63,110
339,GO,0,1,0,0,0,1155.932508,go3100_nogo2900,2,SROF018,-0.224910406,45.42772861,TRAINING,0,91,75,63,110
340,GO,0.773695946,1,0,0,0,1174.9123,go3100_nogo2900,2,SROF018,-0.218113078,45.58823529,TRAINING,0,92,75,63,110
341,NOGO,0.005592108,0,0,0,1,1192.752297,go3100_nogo2900,2,SROF018,-0.22366678,45.45454545,TRAINING,0,92,75,63,111
342,NOGO,1.508628845,0,0,0,1,1225.511869,go3100_nogo2900,2,SROF018,-0.22916803,45.32163743,TRAINING,0,92,75,63,112
343,GO,0.046257973,1,0,0,0,1251.411634,go3100_nogo2900,2,SROF018,-0.222445367,45.48104956,TRAINING,0,93,75,63,112
344,GO,,0,1,0,0,1278.121356,go3100_nogo2900,2,SROF018,-0.23067204,45.34883721,TRAINING,0,93,76,63,112
345,GO,0.243307829,1,0,0,0,1313.401088,go3100_nogo2900,2,SROF018,-0.224020534,45.50724638,TRAINING,0,94,76,63,112
346,NOGO,0.13316083,0,0,0,1,1358.470617,go3100_nogo2900,2,SROF018,-0.229470245,45.37572254,TRAINING,0,94,76,63,113
347,NOGO,0.27668786,0,0,0,1,1394.7003,go3100_nogo2900,2,SROF018,-0.234869307,45.24495677,TRAINING,0,94,76,63,114
348,NOGO,0.234158993,0,0,0,1,1420.370042,go3100_nogo2900,2,SROF018,-0.240218589,45.11494253,TRAINING,0,94,76,63,115
349,NOGO,0,0,0,0,1,1446.549813,go3100_nogo2900,2,SROF018,-0.245518939,44.98567335,TRAINING,0,94,76,63,116
350,GO,0.348479033,1,0,0,0,1470.169579,go3100_nogo2900,2,SROF018,-0.23893902,45.14285714,TRAINING,0,95,76,63,116
351,NOGO,,0,0,1,0,1488.219422,go3100_nogo2900,2,SROF018,-0.229329933,45.2991453,TRAINING,0,95,76,64,116
352,GO,,0,1,0,0,1500.529272,go3100_nogo2900,2,SROF018,-0.237448282,45.17045455,TRAINING,0,95,77,64,116
353,NOGO,0.22084713,0,0,0,1,1513.74916,go3100_nogo2900,2,SROF018,-0.242705603,45.04249292,TRAINING,0,95,77,64,117
354,GO,0.805702925,1,0,0,0,1542.178898,go3100_nogo2900,2,SROF018,-0.236193851,45.19774011,TRAINING,0,96,77,64,117
355,NOGO,0,0,0,0,1,1574.768782,go3100_nogo2900,2,SROF018,-0.241403889,45.07042254,TRAINING,0,96,77,64,118
356,NOGO,,0,0,1,0,1616.048381,go3100_nogo2900,2,SROF018,-0.231943523,45.2247191,TRAINING,0,96,77,65,118
357,GO,0,1,0,0,0,1637.158067,go3100_nogo2900,2,SROF018,-0.225500464,45.37815126,TRAINING,0,97,77,65,118
358,GO,,0,1,0,0,1675.357687,go3100_nogo2900,2,SROF018,-0.233513263,45.25139665,TRAINING,0,97,78,65,118
359,NOGO,1.083839893,0,0,0,1,1704.227369,go3100_nogo2900,2,SROF018,-0.23868173,45.12534819,TRAINING,0,97,78,65,119
360,NOGO,0,0,0,0,1,1745.266978,go3100_nogo2900,2,SROF018,-0.243804481,45,TRAINING,0,97,78,65,120
361,NOGO,,0,0,1,0,1781.346729,go3100_nogo2900,2,SROF018,-0.234488303,45.15235457,TRAINING,0,97,78,66,120
362,NOGO,0.039403915,0,0,0,1,1862.055858,go3100_nogo2900,2,SROF018,-0.239570867,45.02762431,TRAINING,0,97,78,66,121
363,NOGO,0,0,0,0,1,1900.725486,go3100_nogo2900,2,SROF018,-0.244609207,44.90358127,TRAINING,0,97,78,66,122
364,NOGO,,0,0,1,0,1925.16525,go3100_nogo2900,2,SROF018,-0.235432888,45.05494505,TRAINING,0,97,78,67,122
365,GO,0.672801018,1,0,0,0,1944.645008,go3100_nogo2900,2,SROF018,-0.229055187,45.20547945,TRAINING,0,98,78,67,122
366,NOGO,,0,0,1,0,1966.514895,go3100_nogo2900,2,SROF018,-0.220005618,45.35519126,TRAINING,0,98,78,68,122
367,GO,0.480355024,1,0,0,0,1990.454613,go3100_nogo2900,2,SROF018,-0.21369389,45.50408719,TRAINING,0,99,78,68,122
368,GO,,0,1,0,0,2019.694384,go3100_nogo2900,2,SROF018,-0.22160381,45.38043478,TRAINING,0,99,79,68,122
369,NOGO,,0,0,1,0,2072.773863,go3100_nogo2900,2,SROF018,-0.212677609,45.52845528,TRAINING,0,99,79,69,122
370,GO,,0,1,0,0,2104.323563,go3100_nogo2900,2,SROF018,-0.220491004,45.40540541,TRAINING,0,99,80,69,122
371,GO,0.679847956,1,0,0,0,2127.263333,go3100_nogo2900,2,SROF018,-0.214240134,45.55256065,TRAINING,0,100,80,69,122
372,GO,,0,1,0,0,2390.35104,go3100_nogo2900,2,SROF018,-0.221957498,45.43010753,TRAINING,0,100,81,69,122
373,NOGO,0.185557127,0,0,0,1,2429.120498,go3100_nogo2900,2,SROF018,-0.226965762,45.30831099,TRAINING,0,100,81,69,123
374,GO,0.749727964,1,0,0,0,2535.509511,go3100_nogo2900,2,SROF018,-0.220776442,45.45454545,TRAINING,0,101,81,69,123
375,NOGO,,0,0,1,0,2559.409305,go3100_nogo2900,2,SROF018,-0.211974521,45.6,TRAINING,0,101,81,70,123
376,NOGO,1.264081955,0,0,0,1,2744.447554,go3100_nogo2900,2,SROF018,-0.216944195,45.4787234,TRAINING,0,101,81,70,124
377,GO,0.485327959,1,0,0,0,2785.027218,go3100_nogo2900,2,SROF018,-0.210816968,45.62334218,TRAINING,0,102,81,70,124
378,GO,,0,1,0,0,2807.277051,go3100_nogo2900,2,SROF018,-0.218438889,45.5026455,TRAINING,0,102,82,70,124
379,NOGO,,0,0,1,0,2827.576872,go3100_nogo2900,2,SROF018,-0.20975785,45.64643799,TRAINING,0,102,82,71,124
380,GO,,0,1,0,0,2905.536064,go3100_nogo2900,2,SROF018,-0.217290053,45.52631579,TRAINING,0,102,83,71,124
381,GO,0,1,0,0,0,2966.675499,go3100_nogo2900,2,SROF018,-0.211220279,45.66929134,TRAINING,0,103,83,71,124
382,GO,,0,1,0,0,3006.175132,go3100_nogo2900,2,SROF018,-0.218663189,45.54973822,TRAINING,0,103,84,71,124
383,NOGO,,0,0,1,0,3048.194815,go3100_nogo2900,2,SROF018,-0.210095863,45.69190601,TRAINING,0,103,84,72,124
384,NOGO,0,0,0,0,1,3182.903482,go3100_nogo2900,2,SROF018,-0.215031412,45.57291667,TRAINING,0,103,84,72,125
385,NOGO,0.659904957,0,0,0,1,3265.192702,go3100_nogo2900,2,SROF018,-0.219925579,45.45454545,TRAINING,0,103,84,72,126
386,GO,1.025519133,1,0,0,0,3324.0322,go3100_nogo2900,2,SROF018,-0.213913868,45.59585492,TRAINING,0,104,84,72,126
387,GO,,0,1,0,0,3641.779245,go3100_nogo2900,2,SROF018,-0.221269574,45.47803618,TRAINING,0,104,85,72,126
388,GO,,0,1,0,0,3685.368816,go3100_nogo2900,2,SROF018,-0.228541569,45.36082474,TRAINING,0,104,86,72,126
389,GO,0.85689187,1,0,0,0,3729.488522,go3100_nogo2900,2,SROF018,-0.22258535,45.50128535,TRAINING,0,105,86,72,126
390,GO,0.335819006,1,0,0,0,3924.376551,go3100_nogo2900,2,SROF018,-0.216686508,45.64102564,TRAINING,0,106,86,72,126
391,GO,,0,1,0,0,3978.306065,go3100_nogo2900,2,SROF018,-0.223873787,45.52429668,TRAINING,0,106,87,72,126
392,GO,0,1,0,0,0,4009.345947,go3100_nogo2900,2,SROF018,-0.21802981,45.66326531,TRAINING,0,107,87,72,126
393,NOGO,1.086447001,0,0,0,1,4063.985277,go3100_nogo2900,2,SROF018,-0.222883234,45.54707379,TRAINING,0,107,87,72,127
394,GO,0.416637182,1,0,0,0,4107.524848,go3100_nogo2900,2,SROF018,-0.217094551,45.68527919,TRAINING,0,108,87,72,127
395,GO,0.123284101,1,0,0,0,4136.894604,go3100_nogo2900,2,SROF018,-0.211360189,45.82278481,TRAINING,0,109,87,72,127
396,GO,,0,1,0,0,4157.134405,go3100_nogo2900,2,SROF018,-0.218463185,45.70707071,TRAINING,0,109,88,72,127
397,GO,,0,1,0,0,4179.424143,go3100_nogo2900,2,SROF018,-0.225488174,45.59193955,TRAINING,0,109,89,72,127
398,NOGO,0,0,0,0,1,4202.703993,go3100_nogo2900,2,SROF018,-0.230301482,45.47738693,TRAINING,0,109,89,72,128
399,GO,0.167531967,1,0,0,0,4236.863629,go3100_nogo2900,2,SROF018,-0.224617513,45.61403509,TRAINING,0,110,89,72,128
400,GO,,0,1,0,0,4257.963507,go3100_nogo2900,2,SROF018,-0.231564763,45.5,TRAINING,0,110,90,72,128
401,GO,0.235539913,1,0,0,0,4367.742548,go3100_nogo2900,2,SROF018,-0.225931747,45.63591022,TRAINING,0,111,90,72,128
402,GO,,0,1,0,0,4479.931411,go3100_nogo2900,2,SROF018,-0.232802958,45.52238806,TRAINING,0,111,91,72,128
403,GO,0.280823231,1,0,0,0,4497.381226,go3100_nogo2900,2,SROF018,-0.227219993,45.65756824,TRAINING,0,112,91,72,128
404,GO,,0,1,0,0,4541.850788,go3100_nogo2900,2,SROF018,-0.234016809,45.54455446,TRAINING,0,112,92,72,128
405,GO,0.243054867,1,0,0,0,4618.400114,go3100_nogo2900,2,SROF018,-0.228483015,45.67901235,TRAINING,0,113,92,72,128
406,NOGO,,0,0,1,0,4659.489685,go3100_nogo2900,2,SROF018,-0.220041706,45.81280788,TRAINING,0,113,92,73,128
407,NOGO,0.403461933,0,0,0,1,4761.558757,go3100_nogo2900,2,SROF018,-0.224819349,45.7002457,TRAINING,0,113,92,73,129
408,GO,0,1,0,0,0,4868.307696,go3100_nogo2900,2,SROF018,-0.219335153,45.83333333,TRAINING,0,114,92,73,129
409,NOGO,0.295815945,0,0,0,1,4883.177552,go3100_nogo2900,2,SROF018,-0.224073907,45.72127139,TRAINING,0,114,92,73,130
410,NOGO,0.525752068,0,0,0,1,4936.987055,go3100_nogo2900,2,SROF018,-0.228774357,45.6097561,TRAINING,0,114,92,73,131
411,GO,,0,1,0,0,4962.106834,go3100_nogo2900,2,SROF018,-0.235497089,45.49878345,TRAINING,0,114,93,73,131
412,NOGO,0.171562195,0,0,0,1,5028.62633,go3100_nogo2900,2,SROF018,-0.240159807,45.38834951,TRAINING,0,114,93,73,132
413,NOGO,0,0,0,0,1,5138.465161,go3100_nogo2900,2,SROF018,-0.244785352,45.27845036,TRAINING,0,114,93,73,133
414,GO,0,1,0,0,0,5260.984035,go3100_nogo2900,2,SROF018,-0.239348602,45.41062802,TRAINING,0,115,93,73,133
415,NOGO,,0,0,1,0,5417.29264,go3100_nogo2900,2,SROF018,-0.231033524,45.54216867,TRAINING,0,115,93,74,133
416,GO,1.585741997,1,0,0,0,5453.222371,go3100_nogo2900,2,SROF018,-0.225644695,45.67307692,TRAINING,0,116,93,74,133
417,NOGO,0.68324399,0,0,0,1,5546.061448,go3100_nogo2900,2,SROF018,-0.230237398,45.56354916,TRAINING,0,116,93,74,134
418,GO,0.086592913,1,0,0,0,5571.671304,go3100_nogo2900,2,SROF018,-0.224895703,45.6937799,TRAINING,0,117,93,74,134
419,NOGO,,0,0,1,0,5632.160696,go3100_nogo2900,2,SROF018,-0.216688544,45.82338902,TRAINING,0,117,93,75,134
420,GO,0.674157143,1,0,0,0,5663.610347,go3100_nogo2900,2,SROF018,-0.211393216,45.95238095,TRAINING,0,118,93,75,134
421,GO,0.200994968,1,0,0,0,5727.999715,go3100_nogo2900,2,SROF018,-0.206143505,46.0807601,TRAINING,0,119,93,75,134
422,NOGO,0.326551914,0,0,0,1,5810.149096,go3100_nogo2900,2,SROF018,-0.210703803,45.97156398,TRAINING,0,119,93,75,135
423,GO,,0,1,0,0,5847.558714,go3100_nogo2900,2,SROF018,-0.217349926,45.86288416,TRAINING,0,119,94,75,135
424,NOGO,0,0,0,0,1,5860.328561,go3100_nogo2900,2,SROF018,-0.221874683,45.75471698,TRAINING,0,119,94,75,136
425,NOGO,0.318068981,0,0,0,1,6068.046474,go3100_nogo2900,2,SROF018,-0.226364412,45.64705882,TRAINING,0,119,94,75,137
426,NOGO,,0,0,1,0,6158.975703,go3100_nogo2900,2,SROF018,-0.218269561,45.77464789,TRAINING,0,119,94,76,137
427,GO,0.058274031,1,0,0,0,6453.38278,go3100_nogo2900,2,SROF018,-0.213063297,45.90163934,TRAINING,0,120,94,76,137
428,NOGO,,0,0,1,0,6534.692054,go3100_nogo2900,2,SROF018,-0.205067278,46.02803738,TRAINING,0,120,94,77,137
429,GO,0,1,0,0,0,6615.361332,go3100_nogo2900,2,SROF018,-0.19990515,46.15384615,TRAINING,0,121,94,77,137
430,GO,0.429551125,1,0,0,0,6724.490287,go3100_nogo2900,2,SROF018,-0.194786462,46.27906977,TRAINING,0,122,94,77,137
431,NOGO,,0,0,1,0,6766.689855,go3100_nogo2900,2,SROF018,-0.186886942,46.4037123,TRAINING,0,122,94,78,137
432,NOGO,0.245298862,0,0,0,1,7213.295518,go3100_nogo2900,2,SROF018,-0.191352574,46.2962963,TRAINING,0,122,94,78,138
433,GO,0.257447958,1,0,0,0,7339.374313,go3100_nogo2900,2,SROF018,-0.186276646,46.42032333,TRAINING,0,123,94,78,138
434,GO,,0,1,0,0,7537.292592,go3100_nogo2900,2,SROF018,-0.19284888,46.31336406,TRAINING,0,123,95,78,138
435,NOGO,,0,0,1,0,8515.713345,go3100_nogo2900,2,SROF018,-0.185046864,46.43678161,TRAINING,0,123,95,79,138
436,GO,,0,1,0,0,8528.903197,go3100_nogo2900,2,SROF018,-0.1915525,46.33027523,TRAINING,0,123,96,79,138
437,GO,,0,1,0,0,8553.772964,go3100_nogo2900,2,SROF018,-0.19799282,46.22425629,TRAINING,0,123,97,79,138
438,NOGO,0,0,0,0,1,8574.952807,go3100_nogo2900,2,SROF018,-0.202427722,46.11872146,TRAINING,0,123,97,79,139
439,GO,,0,1,0,0,8731.751281,go3100_nogo2900,2,SROF018,-0.20880397,46.01366743,TRAINING,0,123,98,79,139
440,GO,0,1,0,0,0,8801.500607,go3100_nogo2900,2,SROF018,-0.20376456,46.13636364,TRAINING,0,124,98,79,139
441,NOGO,0.444615841,0,0,0,1,8834.220302,go3100_nogo2900,2,SROF018,-0.208165953,46.03174603,TRAINING,0,124,98,79,140
442,NOGO,0.237112999,0,0,0,1,8862.350086,go3100_nogo2900,2,SROF018,-0.212534306,45.92760181,TRAINING,0,124,98,79,141
443,NOGO,1.510627031,0,0,0,1,8917.719536,go3100_nogo2900,2,SROF018,-0.216870076,45.82392777,TRAINING,0,124,98,79,142
444,GO,0.184057951,1,0,0,0,9033.26856,go3100_nogo2900,2,SROF018,-0.211871983,45.94594595,TRAINING,0,125,98,79,142
445,GO,0.198424101,1,0,0,0,9077.75831,go3100_nogo2900,2,SROF018,-0.206914578,46.06741573,TRAINING,0,126,98,79,142
446,GO,0,1,0,0,0,9106.887752,go3100_nogo2900,2,SROF018,-0.201997243,46.18834081,TRAINING,0,127,98,79,142
447,NOGO,,0,0,1,0,9119.647627,go3100_nogo2900,2,SROF018,-0.194299935,46.30872483,TRAINING,0,127,98,80,142
448,NOGO,0,0,0,0,1,9131.637511,go3100_nogo2900,2,SROF018,-0.198606788,46.20535714,TRAINING,0,127,98,80,143
449,NOGO,0,0,0,0,1,9165.357206,go3100_nogo2900,2,SROF018,-0.202881959,46.10244989,TRAINING,0,127,98,80,144
450,NOGO,1.542409897,0,0,0,1,9352.505476,go3100_nogo2900,2,SROF018,-0.207125878,46,TRAINING,0,127,98,80,145
451,GO,0.125459909,1,0,0,0,9382.775148,go3100_nogo2900,2,SROF018,-0.202248011,46.11973392,TRAINING,0,128,98,80,145
452,GO,,0,1,0,0,9425.744803,go3100_nogo2900,2,SROF018,-0.20855497,46.01769912,TRAINING,0,128,99,80,145
453,NOGO,0,0,0,0,1,9535.883733,go3100_nogo2900,2,SROF018,-0.21276806,45.91611479,TRAINING,0,128,99,80,146
454,NOGO,,0,0,1,0,9569.083502,go3100_nogo2900,2,SROF018,-0.205172758,46.03524229,TRAINING,0,128,99,81,146
455,NOGO,0.247570038,0,0,0,1,9820.831105,go3100_nogo2900,2,SROF018,-0.209358593,45.93406593,TRAINING,0,128,99,81,147
456,NOGO,0.385561943,0,0,0,1,9847.420863,go3100_nogo2900,2,SROF018,-0.213514429,45.83333333,TRAINING,0,128,99,81,148
457,GO,,0,1,0,0,9952.069923,go3100_nogo2900,2,SROF018,-0.219760026,45.73304158,TRAINING,0,128,100,81,148
458,NOGO,0,0,0,0,1,10003.98937,go3100_nogo2900,2,SROF018,-0.223886259,45.63318777,TRAINING,0,128,100,81,149
459,NOGO,0,0,0,0,1,10047.15895,go3100_nogo2900,2,SROF018,-0.22798328,45.53376906,TRAINING,0,128,100,81,150
460,GO,0.415333033,1,0,0,0,10178.40778,go3100_nogo2900,2,SROF018,-0.223141602,45.65217391,TRAINING,0,129,100,81,150
461,NOGO,0.527232885,0,0,0,1,10230.00722,go3100_nogo2900,2,SROF018,-0.227209792,45.55314534,TRAINING,0,129,100,81,151
462,NOGO,,0,0,1,0,10257.56695,go3100_nogo2900,2,SROF018,-0.219716992,45.67099567,TRAINING,0,129,100,82,151
463,NOGO,0,0,0,0,1,10278.01676,go3100_nogo2900,2,SROF018,-0.223759839,45.57235421,TRAINING,0,129,100,82,152
464,GO,0,1,0,0,0,10383.01576,go3100_nogo2900,2,SROF018,-0.218956406,45.68965517,TRAINING,0,130,100,82,152
465,NOGO,0,0,0,0,1,10515.05451,go3100_nogo2900,2,SROF018,-0.222971172,45.59139785,TRAINING,0,130,100,82,153
466,NOGO,0,0,0,0,1,10585.83384,go3100_nogo2900,2,SROF018,-0.226958218,45.49356223,TRAINING,0,130,100,82,154
467,NOGO,0.244132042,0,0,0,1,10617.77353,go3100_nogo2900,2,SROF018,-0.230917898,45.39614561,TRAINING,0,130,100,82,155
468,NOGO,,0,0,1,0,10660.91309,go3100_nogo2900,2,SROF018,-0.223521924,45.51282051,TRAINING,0,130,100,83,155
469,NOGO,,0,0,1,0,10702.56275,go3100_nogo2900,2,SROF018,-0.216208432,45.62899787,TRAINING,0,130,100,84,155
470,NOGO,,0,0,1,0,11004.82992,go3100_nogo2900,2,SROF018,-0.208975636,45.74468085,TRAINING,0,130,100,85,155
471,GO,0,1,0,0,0,11337.02688,go3100_nogo2900,2,SROF018,-0.204209886,45.85987261,TRAINING,0,131,100,85,155
472,GO,0.10347414,1,0,0,0,11415.94605,go3100_nogo2900,2,SROF018,-0.199481269,45.97457627,TRAINING,0,132,100,85,155
473,GO,0,1,0,0,0,11529.78503,go3100_nogo2900,2,SROF018,-0.194789246,46.08879493,TRAINING,0,133,100,85,155
474,NOGO,0,0,0,0,1,11658.3438,go3100_nogo2900,2,SROF018,-0.198730814,45.99156118,TRAINING,0,133,100,85,156
475,GO,0,1,0,0,0,11707.86331,go3100_nogo2900,2,SROF018,-0.194074858,46.10526316,TRAINING,0,134,100,85,156
476,NOGO,0,0,0,0,1,11783.42258,go3100_nogo2900,2,SROF018,-0.19798977,46.00840336,TRAINING,0,134,100,85,157
477,NOGO,,0,0,1,0,11812.18236,go3100_nogo2900,2,SROF018,-0.190841558,46.12159329,TRAINING,0,134,100,86,157
478,GO,0.0167799,1,0,0,0,11957.54096,go3100_nogo2900,2,SROF018,-0.186221154,46.23430962,TRAINING,0,135,100,86,157
479,NOGO,0.384946823,0,0,0,1,12196.02881,go3100_nogo2900,2,SROF018,-0.190112562,46.13778706,TRAINING,0,135,100,86,158
480,NOGO,0,0,0,0,1,12247.20825,go3100_nogo2900,2,SROF018,-0.193977981,46.04166667,TRAINING,0,135,100,86,159
481,NOGO,0,0,0,0,1,12301.9377,go3100_nogo2900,2,SROF018,-0.197817732,45.94594595,TRAINING,0,135,100,86,160
482,GO,,0,1,0,0,13025.15089,go3100_nogo2900,2,SROF018,-0.203993781,45.85062241,TRAINING,0,135,101,86,160
483,GO,0.27621913,1,0,0,0,13044.20071,go3100_nogo2900,2,SROF018,-0.19940699,45.96273292,TRAINING,0,136,101,86,160
484,GO,0,1,0,0,0,13151.9897,go3100_nogo2900,2,SROF018,-0.194854728,46.07438017,TRAINING,0,137,101,86,160
485,GO,0,1,0,0,0,13562.9859,go3100_nogo2900,2,SROF018,-0.190336512,46.18556701,TRAINING,0,138,101,86,160
486,NOGO,,0,0,1,0,14186.08008,go3100_nogo2900,2,SROF018,-0.183273685,46.2962963,TRAINING,0,138,101,87,160
487,NOGO,,0,0,1,0,14213.11991,go3100_nogo2900,2,SROF018,-0.176286155,46.40657084,TRAINING,0,138,101,88,160
488,NOGO,0.746144056,0,0,0,1,14320.71882,go3100_nogo2900,2,SROF018,-0.180106004,46.31147541,TRAINING,0,138,101,88,161
489,NOGO,,0,0,1,0,14347.68862,go3100_nogo2900,2,SROF018,-0.173194827,46.42126789,TRAINING,0,138,101,89,161
490,NOGO,,0,0,1,0,5.145554781,go3100_nogo2900,3,SROF018,-0.16635581,46.53061224,TRAINING,0,138,101,90,161
491,NOGO,0.3942101,0,0,0,1,18.08548784,go3100_nogo2900,3,SROF018,-0.170155801,46.43584521,TRAINING,0,138,101,90,162
492,NOGO,0,0,0,0,1,40.53543186,go3100_nogo2900,3,SROF018,-0.173931081,46.34146341,TRAINING,0,138,101,90,163
493,GO,0.609122038,1,0,0,0,63.28503394,go3100_nogo2900,3,SROF018,-0.169446438,46.45030426,TRAINING,0,139,101,90,163
494,GO,0.419559956,1,0,0,0,80.7249229,go3100_nogo2900,3,SROF018,-0.164994903,46.55870445,TRAINING,0,140,101,90,163
495,NOGO,0,0,0,0,1,132.6443949,go3100_nogo2900,3,SROF018,-0.168745768,46.46464646,TRAINING,0,140,101,90,164
496,NOGO,0,0,0,0,1,156.7542238,go3100_nogo2900,3,SROF018,-0.172472512,46.37096774,TRAINING,0,140,101,90,165
497,GO,0.533970118,1,0,0,0,257.5633109,go3100_nogo2900,3,SROF018,-0.168053631,46.47887324,TRAINING,0,141,101,90,165
498,GO,0,1,0,0,0,280.953059,go3100_nogo2900,3,SROF018,-0.163666959,46.58634538,TRAINING,0,142,101,90,165
499,NOGO,0.644428968,0,0,0,1,315.9627759,go3100_nogo2900,3,SROF018,-0.167369867,46.49298597,TRAINING,0,142,101,90,166
500,NOGO,0,0,0,0,1,470.5212929,go3100_nogo2900,3,SROF018,-0.171049221,46.4,TRAINING,0,142,101,90,167
501,GO,0,1,0,0,0,507.5208919,go3100_nogo2900,3,SROF018,-0.166694322,46.50698603,TRAINING,0,143,101,90,167
502,NOGO,0.316406012,0,0,0,1,530.2406888,go3100_nogo2900,3,SROF018,-0.170350399,46.41434263,TRAINING,0,143,101,90,168
503,GO,0,1,0,0,0,555.6604419,go3100_nogo2900,3,SROF018,-0.166026846,46.52087475,TRAINING,0,144,101,90,168
504,NOGO,0.57229805,0,0,0,1,632.4897668,go3100_nogo2900,3,SROF018,-0.169659919,46.42857143,TRAINING,0,144,101,90,169
505,NOGO,0.210083008,0,0,0,1,672.4693348,go3100_nogo2900,3,SROF018,-0.173270254,46.33663366,TRAINING,0,144,101,90,170
506,NOGO,0.46677804,0,0,0,1,701.9190979,go3100_nogo2900,3,SROF018,-0.176858115,46.24505929,TRAINING,0,144,101,90,171
507,GO,0.336898088,1,0,0,0,723.6888199,go3100_nogo2900,3,SROF018,-0.172565489,46.35108481,TRAINING,0,145,101,90,171
508,GO,,0,1,0,0,741.1487279,go3100_nogo2900,3,SROF018,-0.178668109,46.25984252,TRAINING,0,145,102,90,171
509,GO,,0,1,0,0,794.5183039,go3100_nogo2900,3,SROF018,-0.184713663,46.16895874,TRAINING,0,145,103,90,171
510,NOGO,0.203162909,0,0,0,1,868.4075549,go3100_nogo2900,3,SROF018,-0.188279308,46.07843137,TRAINING,0,145,103,90,172
511,NOGO,0,0,0,0,1,1309.173295,go3100_nogo2900,3,SROF018,-0.191822993,45.98825832,TRAINING,0,145,103,90,173
512,NOGO,,0,0,1,0,1502.58154,go3100_nogo2900,3,SROF018,-0.185084896,46.09375,TRAINING,0,145,103,91,173
513,GO,0,1,0,0,0,1563.591071,go3100_nogo2900,3,SROF018,-0.180819675,46.19883041,TRAINING,0,146,103,91,173
514,GO,0.087840796,1,0,0,0,1643.290253,go3100_nogo2900,3,SROF018,-0.176584532,46.30350195,TRAINING,0,147,103,91,173
515,GO,0.811581135,1,0,0,0,1669.789996,go3100_nogo2900,3,SROF018,-0.172379072,46.40776699,TRAINING,0,148,103,91,173
516,NOGO,0,0,0,0,1,1751.879198,go3100_nogo2900,3,SROF018,-0.175903601,46.31782946,TRAINING,0,148,103,91,174
517,NOGO,0.436824083,0,0,0,1,1773.909027,go3100_nogo2900,3,SROF018,-0.179406669,46.22823985,TRAINING,0,148,103,91,175
518,NOGO,,0,0,1,0,1823.378492,go3100_nogo2900,3,SROF018,-0.172742047,46.33204633,TRAINING,0,148,103,92,175
519,NOGO,0,0,0,0,1,1857.468248,go3100_nogo2900,3,SROF018,-0.176226396,46.24277457,TRAINING,0,148,103,92,176
520,NOGO,0.002541065,0,0,0,1,1902.097825,go3100_nogo2900,3,SROF018,-0.179689768,46.15384615,TRAINING,0,148,103,92,177
521,GO,1.284009933,1,0,0,0,2018.95673,go3100_nogo2900,3,SROF018,-0.175513604,46.2571977,TRAINING,0,149,103,92,177
522,NOGO,,0,0,1,0,2052.656486,go3100_nogo2900,3,SROF018,-0.168920872,46.36015326,TRAINING,0,149,103,93,177
523,GO,0,1,0,0,0,2266.484386,go3100_nogo2900,3,SROF018,-0.164773626,46.46271511,TRAINING,0,150,103,93,177
524,NOGO,0.324603081,0,0,0,1,2387.913288,go3100_nogo2900,3,SROF018,-0.168218702,46.3740458,TRAINING,0,150,103,93,178
525,NOGO,,0,0,1,0,2567.981598,go3100_nogo2900,3,SROF018,-0.161693932,46.47619048,TRAINING,0,150,103,94,178
526,GO,,0,1,0,0,2597.711328,go3100_nogo2900,3,SROF018,-0.167675904,46.3878327,TRAINING,0,150,104,94,178
527,GO,0.039004087,1,0,0,0,2665.261435,go3100_nogo2900,3,SROF018,-0.163555646,46.48956357,TRAINING,0,151,104,94,178
528,GO,0.892020941,1,0,0,0,2836.119093,go3100_nogo2900,3,SROF018,-0.159463554,46.59090909,TRAINING,0,152,104,94,178
529,GO,,0,1,0,0,2927.758209,go3100_nogo2900,3,SROF018,-0.165387711,46.50283554,TRAINING,0,152,105,94,178
530,GO,0.19289422,1,0,0,0,3246.765173,go3100_nogo2900,3,SROF018,-0.16132189,46.60377358,TRAINING,0,153,105,94,178
531,GO,,0,1,0,0,3280.894949,go3100_nogo2900,3,SROF018,-0.167190835,46.51600753,TRAINING,0,153,106,94,178
532,GO,0,1,0,0,0,3585.882059,go3100_nogo2900,3,SROF018,-0.163150955,46.61654135,TRAINING,0,154,106,94,178
533,GO,0.502078056,1,0,0,0,3625.36175,go3100_nogo2900,3,SROF018,-0.159138158,46.71669794,TRAINING,0,155,106,94,178
534,NOGO,0.517747879,0,0,0,1,3733.980585,go3100_nogo2900,3,SROF018,-0.162565116,46.62921348,TRAINING,0,155,106,94,179
535,NOGO,0.165314913,0,0,0,1,3758.520393,go3100_nogo2900,3,SROF018,-0.165971793,46.54205607,TRAINING,0,155,106,94,180
536,GO,,0,1,0,0,3876.28941,go3100_nogo2900,3,SROF018,-0.171785077,46.45522388,TRAINING,0,155,107,94,180
537,NOGO,0.157315969,0,0,0,1,3923.372606,go3100_nogo2900,3,SROF018,-0.175171696,46.36871508,TRAINING,0,155,107,94,181
538,NOGO,1.357626915,0,0,0,1,4003.93809,go3100_nogo2900,3,SROF018,-0.178538474,46.28252788,TRAINING,0,155,107,94,182
539,GO,,0,1,0,0,4040.727719,go3100_nogo2900,3,SROF018,-0.184300017,46.19666048,TRAINING,0,155,108,94,182
540,GO,0.325079918,1,0,0,0,4088.607254,go3100_nogo2900,3,SROF018,-0.180311053,46.2962963,TRAINING,0,156,108,94,182
541,NOGO,,0,0,1,0,4116.847079,go3100_nogo2900,3,SROF018,-0.173859892,46.39556377,TRAINING,0,156,108,95,182
542,GO,0.263510942,1,0,0,0,4151.516635,go3100_nogo2900,3,SROF018,-0.169897314,46.49446494,TRAINING,0,157,108,95,182
543,GO,0.18976903,1,0,0,0,4340.564785,go3100_nogo2900,3,SROF018,-0.165960797,46.59300184,TRAINING,0,158,108,95,182
544,GO,0.007447004,1,0,0,0,4405.224191,go3100_nogo2900,3,SROF018,-0.162050024,46.69117647,TRAINING,0,159,108,95,182
545,GO,0.449278116,1,0,0,0,4472.36359,go3100_nogo2900,3,SROF018,-0.158164683,46.78899083,TRAINING,0,160,108,95,182
546,GO,0.033844948,1,0,0,0,4593.782496,go3100_nogo2900,3,SROF018,-0.154304465,46.88644689,TRAINING,0,161,108,95,182
547,NOGO,0.094530821,0,0,0,1,4715.201337,go3100_nogo2900,3,SROF018,-0.157653969,46.80073126,TRAINING,0,161,108,95,183
548,NOGO,1.328473091,0,0,0,1,4785.790681,go3100_nogo2900,3,SROF018,-0.160984062,46.71532847,TRAINING,0,161,108,95,184
549,GO,0.179913998,1,0,0,0,4955.989149,go3100_nogo2900,3,SROF018,-0.157148667,46.81238616,TRAINING,0,162,108,95,184
550,GO,0.610843182,1,0,0,0,4998.238688,go3100_nogo2900,3,SROF018,-0.153337798,46.90909091,TRAINING,0,163,108,95,184
551,NOGO,0.282276869,0,0,0,1,5119.267531,go3100_nogo2900,3,SROF018,-0.156648689,46.82395644,TRAINING,0,163,108,95,185
552,GO,0,1,0,0,0,5327.405574,go3100_nogo2900,3,SROF018,-0.152862055,46.92028986,TRAINING,0,164,108,95,185
553,GO,0.036522865,1,0,0,0,5387.794984,go3100_nogo2900,3,SROF018,-0.14909937,47.01627486,TRAINING,0,165,108,95,185
554,GO,0.040133953,1,0,0,0,5456.684329,go3100_nogo2900,3,SROF018,-0.145360353,47.11191336,TRAINING,0,166,108,95,185
555,NOGO,0,0,0,0,1,5544.633496,go3100_nogo2900,3,SROF018,-0.148652246,47.02702703,TRAINING,0,166,108,95,186
556,GO,0,1,0,0,0,5645.032544,go3100_nogo2900,3,SROF018,-0.14493662,47.12230216,TRAINING,0,167,108,95,186
557,GO,0.760452032,1,0,0,0,5667.552357,go3100_nogo2900,3,SROF018,-0.141244115,47.21723519,TRAINING,0,168,108,95,186
558,NOGO,0,0,0,0,1,5762.471449,go3100_nogo2900,3,SROF018,-0.144517212,47.13261649,TRAINING,0,168,108,95,187
559,GO,0,1,0,0,0,5878.280447,go3100_nogo2900,3,SROF018,-0.14084756,47.22719141,TRAINING,0,169,108,95,187
560,GO,0.414856911,1,0,0,0,5905.500178,go3100_nogo2900,3,SROF018,-0.137200499,47.32142857,TRAINING,0,170,108,95,187
561,GO,,0,1,0,0,5955.469808,go3100_nogo2900,3,SROF018,-0.142889037,47.23707665,TRAINING,0,170,109,95,187
562,GO,0.206590891,1,0,0,0,6011.489222,go3100_nogo2900,3,SROF018,-0.139262742,47.33096085,TRAINING,0,171,109,95,187
563,NOGO,,0,0,1,0,6089.318502,go3100_nogo2900,3,SROF018,-0.132885882,47.42451155,TRAINING,0,171,109,96,187
564,GO,0,1,0,0,0,6154.137887,go3100_nogo2900,3,SROF018,-0.129281657,47.5177305,TRAINING,0,172,109,96,187
565,NOGO,,0,0,1,0,6364.665999,go3100_nogo2900,3,SROF018,-0.122966123,47.61061947,TRAINING,0,172,109,97,187
566,GO,0,1,0,0,0,6427.00523,go3100_nogo2900,3,SROF018,-0.119383719,47.70318021,TRAINING,0,173,109,97,187
567,NOGO,0.330159903,0,0,0,1,6478.064732,go3100_nogo2900,3,SROF018,-0.12264279,47.61904762,TRAINING,0,173,109,97,188
568,NOGO,,0,0,1,0,6586.823867,go3100_nogo2900,3,SROF018,-0.11638964,47.71126761,TRAINING,0,173,109,98,188
569,GO,0,1,0,0,0,6618.603413,go3100_nogo2900,3,SROF018,-0.112828811,47.80316344,TRAINING,0,174,109,98,188
570,GO,,0,1,0,0,6648.963143,go3100_nogo2900,3,SROF018,-0.118461871,47.71929825,TRAINING,0,174,110,98,188
571,NOGO,0.681134939,0,0,0,1,6953.760312,go3100_nogo2900,3,SROF018,-0.121704755,47.6357268,TRAINING,0,174,110,98,189
572,NOGO,0,0,0,0,1,6995.219984,go3100_nogo2900,3,SROF018,-0.124929438,47.55244755,TRAINING,0,174,110,98,190
573,NOGO,0,0,0,0,1,7018.419765,go3100_nogo2900,3,SROF018,-0.128136108,47.46945899,TRAINING,0,174,110,98,191
574,NOGO,,0,0,1,0,7075.439208,go3100_nogo2900,3,SROF018,-0.121948453,47.56097561,TRAINING,0,174,110,99,191
575,NOGO,0.153324842,0,0,0,1,7126.25874,go3100_nogo2900,3,SROF018,-0.125139467,47.47826087,TRAINING,0,174,110,99,192
576,GO,0.092318773,1,0,0,0,7154.7486,go3100_nogo2900,3,SROF018,-0.121598412,47.56944444,TRAINING,0,175,110,99,192
577,GO,0.335942984,1,0,0,0,7209.407974,go3100_nogo2900,3,SROF018,-0.118078447,47.66031196,TRAINING,0,176,110,99,192
578,GO,0,1,0,0,0,7253.997617,go3100_nogo2900,3,SROF018,-0.114579339,47.75086505,TRAINING,0,177,110,99,192
579,GO,0.368690968,1,0,0,0,7850.172141,go3100_nogo2900,3,SROF018,-0.111100857,47.84110535,TRAINING,0,178,110,99,192
580,GO,0,1,0,0,0,7877.731798,go3100_nogo2900,3,SROF018,-0.107642777,47.93103448,TRAINING,0,179,110,99,192
581,GO,0.152943134,1,0,0,0,7952.671105,go3100_nogo2900,3,SROF018,-0.104204877,48.02065404,TRAINING,0,180,110,99,192
582,GO,0.203522921,1,0,0,0,7996.58071,go3100_nogo2900,3,SROF018,-0.100786939,48.10996564,TRAINING,0,181,110,99,192
583,GO,0.015879869,1,0,0,0,8041.280296,go3100_nogo2900,3,SROF018,-0.097388747,48.19897084,TRAINING,0,182,110,99,192
584,GO,0.478140831,1,0,0,0,8124.399475,go3100_nogo2900,3,SROF018,-0.094010091,48.28767123,TRAINING,0,183,110,99,192
585,GO,,0,1,0,0,8168.13907,go3100_nogo2900,3,SROF018,-0.099580847,48.20512821,TRAINING,0,183,111,99,192
586,NOGO,,0,0,1,0,8190.998906,go3100_nogo2900,3,SROF018,-0.093453087,48.29351536,TRAINING,0,183,111,100,192
587,NOGO,,0,0,1,0,8267.418206,go3100_nogo2900,3,SROF018,-0.087382001,48.38160136,TRAINING,0,183,111,101,192
588,NOGO,,0,0,1,0,8320.487693,go3100_nogo2900,3,SROF018,-0.081366569,48.46938776,TRAINING,0,183,111,102,192
589,NOGO,0,0,0,0,1,8369.4773,go3100_nogo2900,3,SROF018,-0.084546167,48.38709677,TRAINING,0,183,111,102,193
590,GO,0,1,0,0,0,8422.186685,go3100_nogo2900,3,SROF018,-0.081185248,48.47457627,TRAINING,0,184,111,102,193
591,NOGO,0,0,0,0,1,8453.996499,go3100_nogo2900,3,SROF018,-0.084347397,48.39255499,TRAINING,0,184,111,102,194
592,NOGO,,0,0,1,0,8487.856188,go3100_nogo2900,3,SROF018,-0.078390592,48.47972973,TRAINING,0,184,111,103,194
593,NOGO,,0,0,1,0,8638.594756,go3100_nogo2900,3,SROF018,-0.072487392,48.56661046,TRAINING,0,184,111,104,194
594,GO,0.404015064,1,0,0,0,8669.314537,go3100_nogo2900,3,SROF018,-0.069145588,48.65319865,TRAINING,0,185,111,104,194
595,GO,0.478475809,1,0,0,0,8689.604295,go3100_nogo2900,3,SROF018,-0.065822699,48.7394958,TRAINING,0,186,111,104,194
596,GO,0,1,0,0,0,8752.743699,go3100_nogo2900,3,SROF018,-0.062518525,48.82550336,TRAINING,0,187,111,104,194
597,GO,0,1,0,0,0,9187.009633,go3100_nogo2900,3,SROF018,-0.059232872,48.91122278,TRAINING,0,188,111,104,194
598,NOGO,,0,0,1,0,9203.699449,go3100_nogo2900,3,SROF018,-0.053382337,48.99665552,TRAINING,0,188,111,105,194
599,GO,0.337846041,1,0,0,0,9445.587209,go3100_nogo2900,3,SROF018,-0.050115012,49.08180301,TRAINING,0,189,111,105,194
600,GO,0.200588942,1,0,0,0,9483.116838,go3100_nogo2900,3,SROF018,-0.046865826,49.16666667,TRAINING,0,190,111,105,194
601,GO,0.645274162,1,0,0,0,9584.906043,go3100_nogo2900,3,SROF018,-0.043634592,49.25124792,TRAINING,0,191,111,105,194
602,NOGO,,0,0,1,0,9650.975276,go3100_nogo2900,3,SROF018,-0.037835808,49.33554817,TRAINING,0,191,111,106,194
603,GO,0.432538033,1,0,0,0,9679.774968,go3100_nogo2900,3,SROF018,-0.034622343,49.41956882,TRAINING,0,192,111,106,194
604,NOGO,,0,0,1,0,10431.40796,go3100_nogo2900,3,SROF018,-0.028874421,49.50331126,TRAINING,0,192,111,107,194
605,GO,0.184182882,1,0,0,0,10447.12773,go3100_nogo2900,3,SROF018,-0.025678543,49.58677686,TRAINING,0,193,111,107,194
606,GO,0,1,0,0,0,10636.23602,go3100_nogo2900,3,SROF018,-0.022500074,49.669967,TRAINING,0,194,111,107,194
607,NOGO,0,0,0,0,1,10780.29468,go3100_nogo2900,3,SROF018,-0.025654454,49.58813839,TRAINING,0,194,111,107,195
608,NOGO,,0,0,1,0,10871.10377,go3100_nogo2900,3,SROF018,-0.019958301,49.67105263,TRAINING,0,194,111,108,195
609,NOGO,0.465932846,0,0,0,1,10904.31347,go3100_nogo2900,3,SROF018,-0.02309738,49.58949097,TRAINING,0,194,111,108,196
610,NOGO,0,0,0,0,1,11058.89209,go3100_nogo2900,3,SROF018,-0.026219555,49.50819672,TRAINING,0,194,111,108,197
611,GO,,0,1,0,0,11098.68169,go3100_nogo2900,3,SROF018,-0.031725733,49.42716858,TRAINING,0,194,112,108,197
612,NOGO,,0,0,1,0,11464.91821,go3100_nogo2900,3,SROF018,-0.02608217,49.50980392,TRAINING,0,194,112,109,197
613,NOGO,,0,0,1,0,11491.73798,go3100_nogo2900,3,SROF018,-0.020486816,49.59216966,TRAINING,0,194,112,110,197
614,NOGO,0.035337925,0,0,0,1,11530.8276,go3100_nogo2900,3,SROF018,-0.023595709,49.51140065,TRAINING,0,194,112,110,198
615,NOGO,,0,0,1,0,11612.08684,go3100_nogo2900,3,SROF018,-0.018049434,49.59349593,TRAINING,0,194,112,111,198
616,GO,,0,1,0,0,11660.93651,go3100_nogo2900,3,SROF018,-0.02350963,49.51298701,TRAINING,0,194,113,111,198
617,GO,0.000454187,1,0,0,0,11678.21633,go3100_nogo2900,3,SROF018,-0.020345199,49.59481361,TRAINING,0,195,113,111,198
618,GO,,0,1,0,0,12068.58243,go3100_nogo2900,3,SROF018,-0.025758614,49.51456311,TRAINING,0,195,114,111,198
619,GO,0.564990044,1,0,0,0,12138.8918,go3100_nogo2900,3,SROF018,-0.022609686,49.59612278,TRAINING,0,196,114,111,198
620,GO,,0,1,0,0,12209.51111,go3100_nogo2900,3,SROF018,-0.027977112,49.51612903,TRAINING,0,196,115,111,198
621,GO,,0,1,0,0,12221.82102,go3100_nogo2900,3,SROF018,-0.033300803,49.43639291,TRAINING,0,196,116,111,198
622,NOGO,,0,0,1,0,12243.18078,go3100_nogo2900,3,SROF018,-0.027801121,49.51768489,TRAINING,0,196,116,112,198
623,GO,0,1,0,0,0,12260.84063,go3100_nogo2900,3,SROF018,-0.024666068,49.59871589,TRAINING,0,197,116,112,198
624,GO,,0,1,0,0,12316.38019,go3100_nogo2900,3,SROF018,-0.029945265,49.51923077,TRAINING,0,197,117,112,198
625,NOGO,0.214349985,0,0,0,1,12428.12908,go3100_nogo2900,3,SROF018,-0.033040906,49.44,TRAINING,0,197,117,112,199
626,NOGO,,0,0,1,0,12462.66877,go3100_nogo2900,3,SROF018,-0.027588656,49.52076677,TRAINING,0,197,117,113,199
627,GO,0,1,0,0,0,12550.02795,go3100_nogo2900,3,SROF018,-0.024468846,49.60127592,TRAINING,0,198,117,113,199
628,GO,0.958035946,1,0,0,0,12619.13731,go3100_nogo2900,3,SROF018,-0.021365564,49.68152866,TRAINING,0,199,117,113,199
629,NOGO,,0,0,1,0,12659.27896,go3100_nogo2900,3,SROF018,-0.015958371,49.76152623,TRAINING,0,199,117,114,199
630,GO,0.142547131,1,0,0,0,12719.19649,go3100_nogo2900,3,SROF018,-0.012871454,49.84126984,TRAINING,0,200,117,114,199
631,GO,0.362844944,1,0,0,0,12764.19613,go3100_nogo2900,3,SROF018,-0.009800743,49.9207607,TRAINING,0,201,117,114,199
632,GO,,0,1,0,0,12889.3666,go3100_nogo2900,3,SROF018,-0.015031889,49.84177215,TRAINING,0,201,118,114,199
633,GO,0.008069992,1,0,0,0,12915.10447,go3100_nogo2900,3,SROF018,-0.011975784,49.92101106,TRAINING,0,202,118,114,199
634,GO,0.16051507,1,0,0,0,13541.8687,go3100_nogo2900,3,SROF018,-0.008935568,50,TRAINING,0,203,118,114,199
635,GO,0.338949919,1,0,0,0,13597.23816,go3100_nogo2900,3,SROF018,-0.005911086,50.07874016,TRAINING,0,204,118,114,199
636,GO,1.350656986,1,0,0,0,13635.58777,go3100_nogo2900,3,SROF018,-0.002902187,50.1572327,TRAINING,0,205,118,114,199
637,GO,0.788686037,1,0,0,0,13767.10663,go3100_nogo2900,3,SROF018,9.13E-05,50.23547881,TRAINING,0,206,118,114,199
638,GO,,0,1,0,0,14302.48165,go3100_nogo2900,3,SROF018,-0.005091229,50.15673981,TRAINING,0,206,119,114,199
639,NOGO,1.660891056,0,0,0,1,14339.96129,go3100_nogo2900,3,SROF018,-0.008173652,50.07824726,TRAINING,0,206,119,114,200
640,GO,,0,1,0,0,3.122000933,go3100_nogo2900,4,SROF018,-0.013315402,50,TRAINING,0,206,120,114,200
641,NOGO,0.727423906,0,0,0,1,15.75182891,go3100_nogo2900,4,SROF018,-0.016381605,49.92199688,TRAINING,0,206,120,114,201
642,GO,1.178653002,1,0,0,0,42.17165899,go3100_nogo2900,4,SROF018,-0.013400598,50,TRAINING,0,207,120,114,201
643,NOGO,0.103594065,0,0,0,1,92.70115185,go3100_nogo2900,4,SROF018,-0.01645074,49.9222395,TRAINING,0,207,120,114,202
644,GO,0.230576992,1,0,0,0,127.130846,go3100_nogo2900,4,SROF018,-0.013484869,50,TRAINING,0,208,120,114,202
645,NOGO,0,0,0,0,1,150.8306589,go3100_nogo2900,4,SROF018,-0.016519104,49.92248062,TRAINING,0,208,120,114,203
646,GO,0,1,0,0,0,175.670392,go3100_nogo2900,4,SROF018,-0.013568227,50,TRAINING,0,209,120,114,203
647,GO,0.333894014,1,0,0,0,193.1202309,go3100_nogo2900,4,SROF018,-0.010632201,50.07727975,TRAINING,0,210,120,114,203
648,GO,0,1,0,0,0,225.3899539,go3100_nogo2900,4,SROF018,-0.00771089,50.15432099,TRAINING,0,211,120,114,203
649,NOGO,,0,0,1,0,246.619698,go3100_nogo2900,4,SROF018,-0.002354188,50.23112481,TRAINING,0,211,120,115,203
650,NOGO,0,0,0,0,1,281.4494109,go3100_nogo2900,4,SROF018,-0.005374221,50.15384615,TRAINING,0,211,120,115,204
651,NOGO,1.102472067,0,0,0,1,333.168884,go3100_nogo2900,4,SROF018,-0.008378658,50.07680492,TRAINING,0,211,120,115,205
652,GO,0.472906828,1,0,0,0,364.3085899,go3100_nogo2900,4,SROF018,-0.005471924,50.15337423,TRAINING,0,212,120,115,205
653,GO,0.438291073,1,0,0,0,382.8483748,go3100_nogo2900,4,SROF018,-0.002579633,50.22970904,TRAINING,0,213,120,115,205
654,GO,0.027060986,1,0,0,0,414.5081089,go3100_nogo2900,4,SROF018,0.000298349,50.3058104,TRAINING,0,214,120,115,205
655,GO,0.00619483,1,0,0,0,456.3277609,go3100_nogo2900,4,SROF018,0.003162151,50.38167939,TRAINING,0,215,120,115,205
656,GO,0.297759056,1,0,0,0,496.107353,go3100_nogo2900,4,SROF018,0.006011905,50.45731707,TRAINING,0,216,120,115,205
657,NOGO,0,0,0,0,1,518.867135,go3100_nogo2900,4,SROF018,0.003022916,50.3805175,TRAINING,0,216,120,115,206
658,NOGO,0.271073103,0,0,0,1,626.1961319,go3100_nogo2900,4,SROF018,4.92E-05,50.30395137,TRAINING,0,216,120,115,207
659,NOGO,0.287441969,0,0,0,1,652.375896,go3100_nogo2900,4,SROF018,-0.002909305,50.2276176,TRAINING,0,216,120,115,208
660,GO,0.518040895,1,0,0,0,678.245631,go3100_nogo2900,4,SROF018,-7.35E-05,50.3030303,TRAINING,0,217,120,115,208
661,NOGO,0.092747927,0,0,0,1,709.9553459,go3100_nogo2900,4,SROF018,-0.003016994,50.2269289,TRAINING,0,217,120,115,209
662,GO,0.49309206,1,0,0,0,1006.882608,go3100_nogo2900,4,SROF018,-0.000194958,50.3021148,TRAINING,0,218,120,115,209
663,GO,0.549124002,1,0,0,0,1167.281046,go3100_nogo2900,4,SROF018,0.002613406,50.37707391,TRAINING,0,219,120,115,209
664,GO,0,1,0,0,0,1233.770439,go3100_nogo2900,4,SROF018,0.005408221,50.45180723,TRAINING,0,220,120,115,209
665,GO,0.391758919,1,0,0,0,1263.410213,go3100_nogo2900,4,SROF018,0.008189609,50.52631579,TRAINING,0,221,120,115,209
666,GO,0,1,0,0,0,1351.159337,go3100_nogo2900,4,SROF018,0.010957688,50.6006006,TRAINING,0,222,120,115,209
667,GO,0.482944965,1,0,0,0,1476.408201,go3100_nogo2900,4,SROF018,0.013712576,50.67466267,TRAINING,0,223,120,115,209
668,GO,0.648057938,1,0,0,0,1532.4176,go3100_nogo2900,4,SROF018,0.01645439,50.74850299,TRAINING,0,224,120,115,209
669,GO,0.573799133,1,0,0,0,1622.686777,go3100_nogo2900,4,SROF018,0.019183244,50.82212257,TRAINING,0,225,120,115,209
670,NOGO,1.136408806,0,0,0,1,1673.646351,go3100_nogo2900,4,SROF018,0.016254596,50.74626866,TRAINING,0,225,120,115,210
671,NOGO,,0,0,1,0,1702.906061,go3100_nogo2900,4,SROF018,0.021557108,50.81967213,TRAINING,0,225,120,116,210
672,GO,0,1,0,0,0,1909.064141,go3100_nogo2900,4,SROF018,0.024273117,50.89285714,TRAINING,0,226,120,116,210
673,GO,,0,1,0,0,1980.213442,go3100_nogo2900,4,SROF018,0.019199597,50.81723626,TRAINING,0,226,121,116,210
674,NOGO,,0,0,1,0,2031.822969,go3100_nogo2900,4,SROF018,0.024459531,50.89020772,TRAINING,0,226,121,117,210
675,NOGO,,0,0,1,0,2152.181792,go3100_nogo2900,4,SROF018,0.029677552,50.96296296,TRAINING,0,226,121,118,210
676,NOGO,,0,0,1,0,2247.830892,go3100_nogo2900,4,SROF018,0.034854308,51.03550296,TRAINING,0,226,121,119,210
677,GO,0.686043024,1,0,0,0,2579.937807,go3100_nogo2900,4,SROF018,0.037559019,51.10782866,TRAINING,0,227,121,119,210
678,NOGO,,0,0,1,0,2748.906286,go3100_nogo2900,4,SROF018,0.042695143,51.179941,TRAINING,0,227,121,120,210
679,GO,0.626513004,1,0,0,0,2806.58573,go3100_nogo2900,4,SROF018,0.045387232,51.25184094,TRAINING,0,228,121,120,210
680,NOGO,,0,0,1,0,2862.535216,go3100_nogo2900,4,SROF018,0.050483343,51.32352941,TRAINING,0,228,121,121,210
681,NOGO,,0,0,1,0,2902.23495,go3100_nogo2900,4,SROF018,0.055540045,51.39500734,TRAINING,0,228,121,122,210
682,NOGO,,0,0,1,0,2938.5546,go3100_nogo2900,4,SROF018,0.060557929,51.46627566,TRAINING,0,228,121,123,210
683,GO,0.256518841,1,0,0,0,3085.893083,go3100_nogo2900,4,SROF018,0.063237506,51.53733529,TRAINING,0,229,121,123,210
684,NOGO,,0,0,1,0,3190.712102,go3100_nogo2900,4,SROF018,0.068217149,51.60818713,TRAINING,0,229,121,124,210
685,GO,0,1,0,0,0,3206.311955,go3100_nogo2900,4,SROF018,0.070884321,51.67883212,TRAINING,0,230,121,124,210
686,GO,0.217183828,1,0,0,0,3393.760213,go3100_nogo2900,4,SROF018,0.073539195,51.74927114,TRAINING,0,231,121,124,210
687,NOGO,,0,0,1,0,3604.508237,go3100_nogo2900,4,SROF018,0.078481161,51.81950509,TRAINING,0,231,121,125,210
688,NOGO,,0,0,1,0,3847.995983,go3100_nogo2900,4,SROF018,0.083386002,51.88953488,TRAINING,0,231,121,126,210
689,NOGO,0,0,0,0,1,3915.585353,go3100_nogo2900,4,SROF018,0.080456805,51.81422351,TRAINING,0,231,121,126,211
690,GO,0,1,0,0,0,3981.574781,go3100_nogo2900,4,SROF018,0.083099485,51.88405797,TRAINING,0,232,121,126,211
691,GO,,0,1,0,0,4006.244546,go3100_nogo2900,4,SROF018,0.078073399,51.8089725,TRAINING,0,232,122,126,211
692,NOGO,,0,0,1,0,4230.462349,go3100_nogo2900,4,SROF018,0.082940437,51.87861272,TRAINING,0,232,122,127,211
693,NOGO,0.206609964,0,0,0,1,4846.636672,go3100_nogo2900,4,SROF018,0.080024571,51.8037518,TRAINING,0,232,122,127,212
694,GO,0.078184843,1,0,0,0,4899.506115,go3100_nogo2900,4,SROF018,0.082656583,51.87319885,TRAINING,0,233,122,127,212
695,GO,0,1,0,0,0,5291.922438,go3100_nogo2900,4,SROF018,0.085276609,51.94244604,TRAINING,0,234,122,127,212
696,NOGO,,0,0,1,0,5407.781355,go3100_nogo2900,4,SROF018,0.090106421,52.01149425,TRAINING,0,234,122,128,212
697,GO,,0,1,0,0,5573.279884,go3100_nogo2900,4,SROF018,0.085121329,51.93687231,TRAINING,0,234,123,128,212
698,NOGO,0,0,0,0,1,5597.239592,go3100_nogo2900,4,SROF018,0.082218678,51.86246418,TRAINING,0,234,123,128,213
699,GO,0.324553013,1,0,0,0,5622.319406,go3100_nogo2900,4,SROF018,0.084828218,51.93133047,TRAINING,0,235,123,128,213
700,NOGO,,0,0,1,0,5706.618561,go3100_nogo2900,4,SROF018,0.089621367,52,TRAINING,0,235,123,129,213
701,GO,0,1,0,0,0,6103.014967,go3100_nogo2900,4,SROF018,0.092219124,52.06847361,TRAINING,0,236,123,129,213
702,GO,0.672701836,1,0,0,0,6216.203736,go3100_nogo2900,4,SROF018,0.094805197,52.13675214,TRAINING,0,237,123,129,213
703,NOGO,0.168524027,0,0,0,1,6337.752702,go3100_nogo2900,4,SROF018,0.091915645,52.0625889,TRAINING,0,237,123,129,214
704,GO,0.348592997,1,0,0,0,6397.562149,go3100_nogo2900,4,SROF018,0.094490131,52.13068182,TRAINING,0,238,123,129,214
705,GO,1.645880938,1,0,0,0,6422.55183,go3100_nogo2900,4,SROF018,0.097053125,52.19858156,TRAINING,0,239,123,129,214
706,NOGO,,0,0,1,0,6453.181642,go3100_nogo2900,4,SROF018,0.10181016,52.26628895,TRAINING,0,239,123,130,214
707,NOGO,0.186594963,0,0,0,1,6598.460201,go3100_nogo2900,4,SROF018,0.098933595,52.19236209,TRAINING,0,239,123,130,215
708,GO,,0,1,0,0,6643.139842,go3100_nogo2900,4,SROF018,0.093992969,52.11864407,TRAINING,0,239,124,130,215
709,NOGO,,0,0,1,0,6675.739529,go3100_nogo2900,4,SROF018,0.098714429,52.18617772,TRAINING,0,239,124,131,215
710,NOGO,0.178034067,0,0,0,1,6738.938925,go3100_nogo2900,4,SROF018,0.095850737,52.11267606,TRAINING,0,239,124,131,216
711,GO,0,1,0,0,0,6761.708864,go3100_nogo2900,4,SROF018,0.098403716,52.18002813,TRAINING,0,240,124,131,216
712,GO,0,1,0,0,0,7221.024513,go3100_nogo2900,4,SROF018,0.100945395,52.24719101,TRAINING,0,241,124,131,216
713,GO,0.618401051,1,0,0,0,8576.06159,go3100_nogo2900,4,SROF018,0.103475865,52.3141655,TRAINING,0,242,124,131,216
714,GO,,0,1,0,0,8612.991237,go3100_nogo2900,4,SROF018,0.098576218,52.24089636,TRAINING,0,242,125,131,216
715,NOGO,,0,0,1,0,9609.471777,go3100_nogo2900,4,SROF018,0.103262628,52.30769231,TRAINING,0,242,125,132,216
716,GO,0.607963085,1,0,0,0,9681.621138,go3100_nogo2900,4,SROF018,0.105783343,52.37430168,TRAINING,0,243,125,132,216
717,NOGO,,0,0,1,0,9766.660398,go3100_nogo2900,4,SROF018,0.110436312,52.44072524,TRAINING,0,243,125,133,216
718,GO,,0,1,0,0,10021.74793,go3100_nogo2900,4,SROF018,0.105574293,52.36768802,TRAINING,0,243,126,133,216
719,GO,0.285272837,1,0,0,0,10055.66763,go3100_nogo2900,4,SROF018,0.108085321,52.43393602,TRAINING,0,244,126,133,216
720,NOGO,0.108348131,0,0,0,1,10174.75651,go3100_nogo2900,4,SROF018,0.105233299,52.36111111,TRAINING,0,244,126,133,217
721,GO,0.417365074,1,0,0,0,10253.61577,go3100_nogo2900,4,SROF018,0.107733393,52.42718447,TRAINING,0,245,126,133,217
722,GO,0.029187918,1,0,0,0,10393.96464,go3100_nogo2900,4,SROF018,0.11022264,52.49307479,TRAINING,0,246,126,133,217
723,NOGO,,0,0,1,0,10605.54251,go3100_nogo2900,4,SROF018,0.114841559,52.55878285,TRAINING,0,246,126,134,217
724,GO,0,1,0,0,0,10618.78232,go3100_nogo2900,4,SROF018,0.117320047,52.62430939,TRAINING,0,247,126,134,217
725,GO,0,1,0,0,0,10651.00198,go3100_nogo2900,4,SROF018,0.119787862,52.68965517,TRAINING,0,248,126,134,217
726,GO,,0,1,0,0,11288.7861,go3100_nogo2900,4,SROF018,0.114968173,52.61707989,TRAINING,0,248,127,134,217
727,GO,0,1,0,0,0,11326.46575,go3100_nogo2900,4,SROF018,0.117426722,52.68225585,TRAINING,0,249,127,134,217
728,GO,0.662182808,1,0,0,0,11545.1937,go3100_nogo2900,4,SROF018,0.119874768,52.74725275,TRAINING,0,250,127,134,217
729,GO,0.47210288,1,0,0,0,11746.15185,go3100_nogo2900,4,SROF018,0.122312394,52.81207133,TRAINING,0,251,127,134,217
730,NOGO,1.76848197,0,0,0,1,12090.14855,go3100_nogo2900,4,SROF018,0.119473044,52.73972603,TRAINING,0,251,127,134,218
731,GO,0.764135122,1,0,0,0,12280.55679,go3100_nogo2900,4,SROF018,0.121900333,52.80437756,TRAINING,0,252,127,134,218
732,NOGO,,0,0,1,0,12306.82657,go3100_nogo2900,4,SROF018,0.126485695,52.86885246,TRAINING,0,252,127,135,218
733,GO,0.011338949,1,0,0,0,12566.3142,go3100_nogo2900,4,SROF018,0.128902727,52.93315143,TRAINING,0,253,127,135,218
734,NOGO,0,0,0,0,1,12747.70239,go3100_nogo2900,4,SROF018,0.12607594,52.86103542,TRAINING,0,253,127,135,219
735,GO,0,1,0,0,0,12784.07214,go3100_nogo2900,4,SROF018,0.128482796,52.92517007,TRAINING,0,254,127,135,219
736,NOGO,0.628236055,0,0,0,1,12805.07186,go3100_nogo2900,4,SROF018,0.125669503,52.85326087,TRAINING,0,254,127,135,220
737,NOGO,,0,0,1,0,12962.70038,go3100_nogo2900,4,SROF018,0.130220752,52.91723202,TRAINING,0,254,127,136,220
738,GO,0.293597937,1,0,0,0,13189.20824,go3100_nogo2900,4,SROF018,0.132617511,52.98102981,TRAINING,0,255,127,136,220
739,NOGO,,0,0,1,0,13594.82454,go3100_nogo2900,4,SROF018,0.137137195,53.04465494,TRAINING,0,255,127,137,220
740,GO,0.635264158,1,0,0,0,13700.97339,go3100_nogo2900,4,SROF018,0.139523934,53.10810811,TRAINING,0,256,127,137,220
741,GO,0.413509846,1,0,0,0,14308.39766,go3100_nogo2900,4,SROF018,0.141900733,53.17139001,TRAINING,0,257,127,137,220
742,NOGO,,0,0,1,0,3.811326027,go3100_nogo2900,5,SROF018,0.146389273,53.23450135,TRAINING,0,257,127,138,220
743,GO,,0,1,0,0,42.40096092,go3100_nogo2900,5,SROF018,0.141616429,53.1628533,TRAINING,0,257,128,138,220
744,GO,0.000553131,1,0,0,0,58.43078899,go3100_nogo2900,5,SROF018,0.143984672,53.22580645,TRAINING,0,258,128,138,220
745,NOGO,0.975944996,0,0,0,1,114.8002961,go3100_nogo2900,5,SROF018,0.141181693,53.15436242,TRAINING,0,258,128,138,221
746,NOGO,0.010682821,0,0,0,1,148.439867,go3100_nogo2900,5,SROF018,0.138391958,53.08310992,TRAINING,0,258,128,138,222
747,GO,0,1,0,0,0,175.3496709,go3100_nogo2900,5,SROF018,0.140750413,53.145917,TRAINING,0,259,128,138,222
748,NOGO,0.5092659,0,0,0,1,239.789115,go3100_nogo2900,5,SROF018,0.137973806,53.07486631,TRAINING,0,259,128,138,223
749,GO,0.543632984,1,0,0,0,299.278758,go3100_nogo2900,5,SROF018,0.140322547,53.13751669,TRAINING,0,260,128,138,223
750,NOGO,,0,0,1,0,359.9679041,go3100_nogo2900,5,SROF018,0.144777416,53.2,TRAINING,0,260,128,139,223
751,GO,,0,1,0,0,472.8968689,go3100_nogo2900,5,SROF018,0.140042844,53.12916112,TRAINING,0,260,129,139,223
752,NOGO,1.11560297,0,0,0,1,537.9062319,go3100_nogo2900,5,SROF018,0.137278259,53.05851064,TRAINING,0,260,129,139,224
753,NOGO,0.167925835,0,0,0,1,647.6151819,go3100_nogo2900,5,SROF018,0.13452657,52.98804781,TRAINING,0,260,129,139,225
754,NOGO,0.0191679,0,0,0,1,694.294755,go3100_nogo2900,5,SROF018,0.131787665,52.91777188,TRAINING,0,260,129,139,226
755,GO,0.45919919,1,0,0,0,852.793225,go3100_nogo2900,5,SROF018,0.134128057,52.98013245,TRAINING,0,261,129,139,226
756,NOGO,,0,0,1,0,954.302336,go3100_nogo2900,5,SROF018,0.138549746,53.04232804,TRAINING,0,261,129,140,226
757,NOGO,0.93739295,0,0,0,1,999.4418619,go3100_nogo2900,5,SROF018,0.135822533,52.97225892,TRAINING,0,261,129,140,227
758,GO,0.434867859,1,0,0,0,2021.80216,go3100_nogo2900,5,SROF018,0.13815336,53.03430079,TRAINING,0,262,129,140,227
759,GO,0.290932894,1,0,0,0,3687.996536,go3100_nogo2900,5,SROF018,0.140474694,53.09617918,TRAINING,0,263,129,140,227
760,GO,1.078830004,1,0,0,0,3737.986074,go3100_nogo2900,5,SROF018,0.142786607,53.15789474,TRAINING,0,264,129,140,227
761,GO,0.150482893,1,0,0,0,4109.222516,go3100_nogo2900,5,SROF018,0.145089169,53.21944809,TRAINING,0,265,129,140,227
762,GO,1.029633045,1,0,0,0,4754.316414,go3100_nogo2900,5,SROF018,0.147382451,53.2808399,TRAINING,0,266,129,140,227
763,NOGO,0.757248878,0,0,0,1,5023.293965,go3100_nogo2900,5,SROF018,0.144667799,53.21100917,TRAINING,0,266,129,140,228
764,GO,0.397524834,1,0,0,0,5246.241666,go3100_nogo2900,5,SROF018,0.146951869,53.27225131,TRAINING,0,267,129,140,228
765,GO,0,1,0,0,0,5360.370653,go3100_nogo2900,5,SROF018,0.149226796,53.33333333,TRAINING,0,268,129,140,228
766,GO,0.000841141,1,0,0,0,5427.34992,go3100_nogo2900,5,SROF018,0.151492647,53.39425587,TRAINING,0,269,129,140,228
767,GO,,0,1,0,0,5681.637641,go3100_nogo2900,5,SROF018,0.146803377,53.32464146,TRAINING,0,269,130,140,228
768,NOGO,0.615859985,0,0,0,1,6334.071418,go3100_nogo2900,5,SROF018,0.144101179,53.25520833,TRAINING,0,269,130,140,229
769,GO,,0,1,0,0,6365.871125,go3100_nogo2900,5,SROF018,0.139445104,53.18595579,TRAINING,0,269,131,140,229
770,GO,0.862601042,1,0,0,0,6423.600577,go3100_nogo2900,5,SROF018,0.141704477,53.24675325,TRAINING,0,270,131,140,229
771,NOGO,,0,0,1,0,6586.869057,go3100_nogo2900,5,SROF018,0.146093468,53.307393,TRAINING,0,270,131,141,229
772,NOGO,,0,0,1,0,6818.456867,go3100_nogo2900,5,SROF018,0.150453102,53.36787565,TRAINING,0,270,131,142,229
773,GO,1.0749259,1,0,0,0,6864.776471,go3100_nogo2900,5,SROF018,0.152703534,53.42820181,TRAINING,0,271,131,142,229
774,GO,0.001181841,1,0,0,0,6901.416124,go3100_nogo2900,5,SROF018,0.154945089,53.48837209,TRAINING,0,272,131,142,229
775,GO,0.273146868,1,0,0,0,7027.76497,go3100_nogo2900,5,SROF018,0.157177834,53.5483871,TRAINING,0,273,131,142,229
776,GO,0.977497101,1,0,0,0,7141.194062,go3100_nogo2900,5,SROF018,0.159401832,53.60824742,TRAINING,0,274,131,142,229
777,GO,0.738049984,1,0,0,0,7214.793201,go3100_nogo2900,5,SROF018,0.161617146,53.66795367,TRAINING,0,275,131,142,229
778,GO,0.616328955,1,0,0,0,7529.240156,go3100_nogo2900,5,SROF018,0.163823839,53.72750643,TRAINING,0,276,131,142,229
779,NOGO,,0,0,1,0,7555.390006,go3100_nogo2900,5,SROF018,0.168154497,53.78690629,TRAINING,0,276,131,143,229
780,GO,,0,1,0,0,7631.019197,go3100_nogo2900,5,SROF018,0.163539808,53.71794872,TRAINING,0,276,132,143,229
781,GO,,0,1,0,0,7686.488727,go3100_nogo2900,5,SROF018,0.158957263,53.64916773,TRAINING,0,276,133,143,229
782,NOGO,,0,0,1,0,7878.786924,go3100_nogo2900,5,SROF018,0.163259316,53.7084399,TRAINING,0,276,133,144,229
783,NOGO,,0,0,1,0,8069.365104,go3100_nogo2900,5,SROF018,0.167533129,53.76756066,TRAINING,0,276,133,145,229
784,GO,,0,1,0,0,9520.231673,go3100_nogo2900,5,SROF018,0.162982288,53.69897959,TRAINING,0,276,134,145,229
785,NOGO,1.101584196,0,0,0,1,9536.211549,go3100_nogo2900,5,SROF018,0.16028777,53.63057325,TRAINING,0,276,134,145,230
786,GO,0.609048843,1,0,0,0,9578.201169,go3100_nogo2900,5,SROF018,0.16248956,53.68956743,TRAINING,0,277,134,145,230
787,GO,0.239487171,1,0,0,0,9898.838108,go3100_nogo2900,5,SROF018,0.164682855,53.74841169,TRAINING,0,278,134,145,230
788,NOGO,,0,0,1,0,10475.86273,go3100_nogo2900,5,SROF018,0.168927908,53.8071066,TRAINING,0,278,134,146,230
789,NOGO,0.389456987,0,0,0,1,10604.45158,go3100_nogo2900,5,SROF018,0.166244732,53.73891001,TRAINING,0,278,134,146,231
790,GO,0,1,0,0,0,10646.46111,go3100_nogo2900,5,SROF018,0.168429592,53.79746835,TRAINING,0,279,134,146,231
791,NOGO,0.161713123,0,0,0,1,10947.79825,go3100_nogo2900,5,SROF018,0.165758534,53.72945638,TRAINING,0,279,134,146,232
792,GO,0.465905905,1,0,0,0,11080.047,go3100_nogo2900,5,SROF018,0.167935018,53.78787879,TRAINING,0,280,134,146,232
793,GO,0.64488101,1,0,0,0,11108.67675,go3100_nogo2900,5,SROF018,0.170103186,53.84615385,TRAINING,0,281,134,146,232
794,NOGO,,0,0,1,0,13988.01981,go3100_nogo2900,5,SROF018,0.174318995,53.90428212,TRAINING,0,281,134,147,232
795,GO,1.266479015,1,0,0,0,14020.69952,go3100_nogo2900,5,SROF018,0.176478906,53.96226415,TRAINING,0,282,134,147,232
796,NOGO,,0,0,1,0,14337.22649,go3100_nogo2900,5,SROF018,0.18066758,54.0201005,TRAINING,0,282,134,148,232
797,GO,,0,1,0,0,34.08557701,go3100_nogo2900,6,SROF018,0.176155105,53.9523212,TRAINING,0,282,135,148,232
798,NOGO,0.329564095,0,0,0,1,75.92520499,go3100_nogo2900,6,SROF018,0.173494339,53.88471178,TRAINING,0,282,135,148,233
799,GO,0,1,0,0,0,127.8346701,go3100_nogo2900,6,SROF018,0.175647234,53.94242804,TRAINING,0,283,135,148,233
800,GO,0.196153164,1,0,0,0,162.044343,go3100_nogo2900,6,SROF018,0.177791989,54,TRAINING,0,284,135,148,233
801,NOGO,1.236504078,0,0,0,1,199.654047,go3100_nogo2900,6,SROF018,0.175143131,53.93258427,TRAINING,0,284,135,148,234
802,NOGO,0.000725031,0,0,0,1,225.8437591,go3100_nogo2900,6,SROF018,0.172506081,53.86533666,TRAINING,0,284,135,148,235
803,GO,0.147474051,1,0,0,0,299.8731771,go3100_nogo2900,6,SROF018,0.174642752,53.92278954,TRAINING,0,285,135,148,235
804,NOGO,,0,0,1,0,378.8823421,go3100_nogo2900,6,SROF018,0.17880211,53.9800995,TRAINING,0,285,135,149,235
805,GO,,0,1,0,0,441.461724,go3100_nogo2900,6,SROF018,0.174323873,53.91304348,TRAINING,0,285,136,149,235
806,NOGO,0.848269939,0,0,0,1,617.050086,go3100_nogo2900,6,SROF018,0.171697688,53.84615385,TRAINING,0,285,136,149,236
807,GO,0.146259069,1,0,0,0,643.169857,go3100_nogo2900,6,SROF018,0.173827497,53.90334572,TRAINING,0,286,136,149,236
808,GO,0.366144896,1,0,0,0,672.6595662,go3100_nogo2900,6,SROF018,0.175949335,53.96039604,TRAINING,0,287,136,149,236
809,GO,,0,1,0,0,712.539221,go3100_nogo2900,6,SROF018,0.171503671,53.89369592,TRAINING,0,287,137,149,236
810,NOGO,0.501583099,0,0,0,1,793.5584919,go3100_nogo2900,6,SROF018,0.168889097,53.82716049,TRAINING,0,287,137,149,237
811,NOGO,1.010806084,0,0,0,1,843.8979831,go3100_nogo2900,6,SROF018,0.166286039,53.76078915,TRAINING,0,287,137,149,238
812,NOGO,0.944323063,0,0,0,1,906.5673862,go3100_nogo2900,6,SROF018,0.163694401,53.69458128,TRAINING,0,287,137,149,239
813,NOGO,0.463822126,0,0,0,1,996.9865232,go3100_nogo2900,6,SROF018,0.161114093,53.62853629,TRAINING,0,287,137,149,240
814,NOGO,0.000828028,0,0,0,1,1157.895105,go3100_nogo2900,6,SROF018,0.158545021,53.56265356,TRAINING,0,287,137,149,241
815,GO,0,1,0,0,0,1200.974652,go3100_nogo2900,6,SROF018,0.160660091,53.6196319,TRAINING,0,288,137,149,241
816,GO,0,1,0,0,0,1222.264468,go3100_nogo2900,6,SROF018,0.162767301,53.67647059,TRAINING,0,289,137,149,241
817,GO,1.013410091,1,0,0,0,1614.130767,go3100_nogo2900,6,SROF018,0.164866703,53.73317013,TRAINING,0,290,137,149,241
818,NOGO,0,0,0,0,1,1667.630256,go3100_nogo2900,6,SROF018,0.162308776,53.66748166,TRAINING,0,290,137,149,242
819,GO,0.190313101,1,0,0,0,1692.329996,go3100_nogo2900,6,SROF018,0.164400424,53.72405372,TRAINING,0,291,137,149,242
820,GO,0,1,0,0,0,1743.079547,go3100_nogo2900,6,SROF018,0.166484372,53.7804878,TRAINING,0,292,137,149,242
821,NOGO,0.75651598,0,0,0,1,1791.17905,go3100_nogo2900,6,SROF018,0.163937501,53.71498173,TRAINING,0,292,137,149,243
822,NOGO,,0,0,1,0,1840.158593,go3100_nogo2900,6,SROF018,0.168063706,53.77128954,TRAINING,0,292,137,150,243
823,GO,0,1,0,0,0,1968.037437,go3100_nogo2900,6,SROF018,0.170140005,53.82746051,TRAINING,0,293,137,150,243
824,GO,,0,1,0,0,2047.566706,go3100_nogo2900,6,SROF018,0.165730979,53.76213592,TRAINING,0,293,138,150,243
825,NOGO,0,0,0,0,1,2068.876532,go3100_nogo2900,6,SROF018,0.163194218,53.6969697,TRAINING,0,293,138,150,244
826,NOGO,0,0,0,0,1,2126.275978,go3100_nogo2900,6,SROF018,0.160668334,53.63196126,TRAINING,0,293,138,150,245
827,GO,0,1,0,0,0,2161.25563,go3100_nogo2900,6,SROF018,0.162738171,53.68802902,TRAINING,0,294,138,150,245
828,GO,,0,1,0,0,2209.055217,go3100_nogo2900,6,SROF018,0.158359605,53.62318841,TRAINING,0,294,139,150,245
829,GO,0.44368577,1,0,0,0,2281.224554,go3100_nogo2900,6,SROF018,0.160423014,53.67913148,TRAINING,0,295,139,150,245
830,NOGO,,0,0,1,0,2403.063437,go3100_nogo2900,6,SROF018,0.164521575,53.73493976,TRAINING,0,295,139,151,245
831,NOGO,0.355981112,0,0,0,1,2518.282297,go3100_nogo2900,6,SROF018,0.162005634,53.67027677,TRAINING,0,295,139,151,246
832,GO,0.636082888,1,0,0,0,3221.42578,go3100_nogo2900,6,SROF018,0.164061549,53.72596154,TRAINING,0,296,139,151,246
833,GO,0,1,0,0,0,3297.875003,go3100_nogo2900,6,SROF018,0.166110021,53.78151261,TRAINING,0,297,139,151,246
834,GO,0.577459097,1,0,0,0,3373.474375,go3100_nogo2900,6,SROF018,0.168151098,53.83693046,TRAINING,0,298,139,151,246
835,GO,,0,1,0,0,3406.154023,go3100_nogo2900,6,SROF018,0.163805881,53.77245509,TRAINING,0,298,140,151,246
836,NOGO,0.093066931,0,0,0,1,3429.723764,go3100_nogo2900,6,SROF018,0.161300642,53.70813397,TRAINING,0,298,140,151,247
837,NOGO,0.226893187,0,0,0,1,3459.323504,go3100_nogo2900,6,SROF018,0.158806019,53.64396655,TRAINING,0,298,140,151,248
838,NOGO,,0,0,1,0,3682.831439,go3100_nogo2900,6,SROF018,0.162876467,53.69928401,TRAINING,0,298,140,152,248
839,NOGO,0,0,0,0,1,3717.731205,go3100_nogo2900,6,SROF018,0.160391538,53.6352801,TRAINING,0,298,140,152,249
840,GO,,0,1,0,0,3752.700787,go3100_nogo2900,6,SROF018,0.156074823,53.57142857,TRAINING,0,298,141,152,249
841,NOGO,0.894665956,0,0,0,1,3836.47994,go3100_nogo2900,6,SROF018,0.153600342,53.50772889,TRAINING,0,298,141,152,250
842,GO,0.340967178,1,0,0,0,4347.50517,go3100_nogo2900,6,SROF018,0.155636264,53.56294537,TRAINING,0,299,141,152,250
843,NOGO,,0,0,1,0,4723.541615,go3100_nogo2900,6,SROF018,0.159679805,53.61803084,TRAINING,0,299,141,153,250
844,NOGO,,0,0,1,0,5563.073852,go3100_nogo2900,6,SROF018,0.163698424,53.67298578,TRAINING,0,299,141,154,250
845,GO,0.218219042,1,0,0,0,5748.642117,go3100_nogo2900,6,SROF018,0.165727051,53.72781065,TRAINING,0,300,141,154,250
846,GO,,0,1,0,0,6013.609608,go3100_nogo2900,6,SROF018,0.161440609,53.6643026,TRAINING,0,300,142,154,250
847,NOGO,,0,0,1,0,6043.729416,go3100_nogo2900,6,SROF018,0.165434603,53.71900826,TRAINING,0,300,142,155,250
848,NOGO,,0,0,1,0,6055.809243,go3100_nogo2900,6,SROF018,0.169404264,53.77358491,TRAINING,0,300,142,156,250
849,GO,0.471231222,1,0,0,0,6074.009075,go3100_nogo2900,6,SROF018,0.171426715,53.82803298,TRAINING,0,301,142,156,250
850,NOGO,0.437696934,0,0,0,1,6127.958618,go3100_nogo2900,6,SROF018,0.168959372,53.76470588,TRAINING,0,301,142,156,251
851,GO,0,1,0,0,0,6207.038059,go3100_nogo2900,6,SROF018,0.170974625,53.81903643,TRAINING,0,302,142,156,251
852,NOGO,,0,0,1,0,6259.697434,go3100_nogo2900,6,SROF018,0.174919469,53.87323944,TRAINING,0,302,142,157,251
853,GO,0.51324892,1,0,0,0,6275.19725,go3100_nogo2900,6,SROF018,0.17692757,53.92731536,TRAINING,0,303,142,157,251
854,GO,0.244116783,1,0,0,0,6333.206703,go3100_nogo2900,6,SROF018,0.178928567,53.98126464,TRAINING,0,304,142,157,251
855,NOGO,,0,0,1,0,6396.676126,go3100_nogo2900,6,SROF018,0.182849659,54.03508772,TRAINING,0,304,142,158,251
856,NOGO,1.046980143,0,0,0,1,6592.484291,go3100_nogo2900,6,SROF018,0.180391061,53.97196262,TRAINING,0,304,142,158,252
857,NOGO,0.685511112,0,0,0,1,7106.969473,go3100_nogo2900,6,SROF018,0.177942651,53.90898483,TRAINING,0,304,142,158,253
858,GO,0.041563988,1,0,0,0,7160.208957,go3100_nogo2900,6,SROF018,0.179936591,53.96270396,TRAINING,0,305,142,158,253
859,NOGO,,0,0,1,0,7281.887797,go3100_nogo2900,6,SROF018,0.183832717,54.01629802,TRAINING,0,305,142,159,253
860,NOGO,,0,0,1,0,7324.387368,go3100_nogo2900,6,SROF018,0.187705667,54.06976744,TRAINING,0,305,142,160,253
861,GO,0.623605013,1,0,0,0,7339.167256,go3100_nogo2900,6,SROF018,0.189692595,54.12311266,TRAINING,0,306,142,160,253
862,GO,1.463639021,1,0,0,0,7368.926945,go3100_nogo2900,6,SROF018,0.191672556,54.17633411,TRAINING,0,307,142,160,253
863,GO,0.271291971,1,0,0,0,7447.116129,go3100_nogo2900,6,SROF018,0.193645597,54.22943221,TRAINING,0,308,142,160,253
864,NOGO,0,0,0,0,1,7482.625822,go3100_nogo2900,6,SROF018,0.191205812,54.16666667,TRAINING,0,308,142,160,254
865,GO,0.197687149,1,0,0,0,7573.484967,go3100_nogo2900,6,SROF018,0.193171977,54.21965318,TRAINING,0,309,142,160,254
866,GO,0.508332014,1,0,0,0,7669.304004,go3100_nogo2900,6,SROF018,0.19513131,54.27251732,TRAINING,0,310,142,160,254
867,NOGO,0.062067986,0,0,0,1,7692.873831,go3100_nogo2900,6,SROF018,0.192701553,54.20991926,TRAINING,0,310,142,160,255
868,NOGO,0.897268057,0,0,0,1,8125.739784,go3100_nogo2900,6,SROF018,0.190281747,54.14746544,TRAINING,0,310,142,160,256
869,GO,0.832679033,1,0,0,0,8153.719557,go3100_nogo2900,6,SROF018,0.192234292,54.20023015,TRAINING,0,311,142,160,256
870,NOGO,,0,0,1,0,8332.51785,go3100_nogo2900,6,SROF018,0.196082157,54.25287356,TRAINING,0,311,142,161,256
871,GO,,0,1,0,0,8442.76696,go3100_nogo2900,6,SROF018,0.191835077,54.19058553,TRAINING,0,311,143,161,256
872,GO,0,1,0,0,0,8462.75669,go3100_nogo2900,6,SROF018,0.193781935,54.24311927,TRAINING,0,312,143,161,256
873,NOGO,0.344318867,0,0,0,1,8500.316362,go3100_nogo2900,6,SROF018,0.191371273,54.18098511,TRAINING,0,312,143,161,257
874,NOGO,,0,0,1,0,8703.744507,go3100_nogo2900,6,SROF018,0.195195813,54.23340961,TRAINING,0,312,143,162,257
875,NOGO,,0,0,1,0,8768.733867,go3100_nogo2900,6,SROF018,0.198998013,54.28571429,TRAINING,0,312,143,163,257
876,NOGO,,0,0,1,0,9099.850833,go3100_nogo2900,6,SROF018,0.202778128,54.33789954,TRAINING,0,312,143,164,257
877,GO,0,1,0,0,0,9122.790663,go3100_nogo2900,6,SROF018,0.204718284,54.38996579,TRAINING,0,313,143,164,257
878,NOGO,,0,0,1,0,9220.049564,go3100_nogo2900,6,SROF018,0.20847656,54.44191344,TRAINING,0,313,143,165,257
879,NOGO,,0,0,1,0,9516.886832,go3100_nogo2900,6,SROF018,0.21221324,54.49374289,TRAINING,0,313,143,166,257
880,GO,,0,1,0,0,9542.786561,go3100_nogo2900,6,SROF018,0.207995468,54.43181818,TRAINING,0,313,144,166,257
881,GO,1.094424963,1,0,0,0,9587.036203,go3100_nogo2900,6,SROF018,0.209930009,54.48354143,TRAINING,0,314,144,166,257
882,NOGO,0.064027786,0,0,0,1,9796.774259,go3100_nogo2900,6,SROF018,0.207525673,54.42176871,TRAINING,0,314,144,166,258
883,GO,0,1,0,0,0,9908.043161,go3100_nogo2900,6,SROF018,0.209453597,54.47338618,TRAINING,0,315,144,166,258
884,NOGO,,0,0,1,0,10013.61227,go3100_nogo2900,6,SROF018,0.213168265,54.52488688,TRAINING,0,315,144,167,258
885,NOGO,,0,0,1,0,10043.27198,go3100_nogo2900,6,SROF018,0.216861824,54.57627119,TRAINING,0,315,144,168,258
886,GO,0.260559797,1,0,0,0,10125.36124,go3100_nogo2900,6,SROF018,0.218783174,54.6275395,TRAINING,0,316,144,168,258
887,NOGO,,0,0,1,0,10353.64903,go3100_nogo2900,6,SROF018,0.222455855,54.67869222,TRAINING,0,316,144,169,258
888,NOGO,,0,0,1,0,10731.08563,go3100_nogo2900,6,SROF018,0.226107887,54.72972973,TRAINING,0,316,144,170,258
889,GO,0.171614885,1,0,0,0,10782.45502,go3100_nogo2900,6,SROF018,0.228022703,54.78065242,TRAINING,0,317,144,170,258
890,GO,0.398019075,1,0,0,0,10809.32478,go3100_nogo2900,6,SROF018,0.229931028,54.83146067,TRAINING,0,318,144,170,258
891,GO,,0,1,0,0,10890.89401,go3100_nogo2900,6,SROF018,0.225745247,54.76992144,TRAINING,0,318,145,170,258
892,NOGO,,0,0,1,0,10960.08337,go3100_nogo2900,6,SROF018,0.229376852,54.8206278,TRAINING,0,318,145,171,258
893,GO,0.72279501,1,0,0,0,11001.14302,go3100_nogo2900,6,SROF018,0.231279754,54.8712206,TRAINING,0,319,145,171,258
894,NOGO,,0,0,1,0,11186.8814,go3100_nogo2900,6,SROF018,0.234891153,54.92170022,TRAINING,0,319,145,172,258
895,GO,,0,1,0,0,11220.51107,go3100_nogo2900,6,SROF018,0.230732828,54.8603352,TRAINING,0,319,146,172,258
896,GO,,0,1,0,0,11267.95045,go3100_nogo2900,6,SROF018,0.226600603,54.79910714,TRAINING,0,319,147,172,258
897,GO,0.446010113,1,0,0,0,11307.10021,go3100_nogo2900,6,SROF018,0.228499108,54.84949833,TRAINING,0,320,147,172,258
898,GO,0.224406958,1,0,0,0,11477.7186,go3100_nogo2900,6,SROF018,0.230391243,54.89977728,TRAINING,0,321,147,172,258
899,NOGO,,0,0,1,0,11905.23454,go3100_nogo2900,6,SROF018,0.233982651,54.94994438,TRAINING,0,321,147,173,258
900,GO,,0,1,0,0,12022.37348,go3100_nogo2900,6,SROF018,0.229878175,54.88888889,TRAINING,0,321,148,173,258
901,NOGO,,0,0,1,0,12053.67315,go3100_nogo2900,6,SROF018,0.233449807,54.93895671,TRAINING,0,321,148,174,258
902,NOGO,,0,0,1,0,12175.61202,go3100_nogo2900,6,SROF018,0.23700187,54.98891353,TRAINING,0,321,148,175,258
903,NOGO,,0,0,1,0,12310.03084,go3100_nogo2900,6,SROF018,0.240534573,55.03875969,TRAINING,0,321,148,176,258
904,GO,,0,1,0,0,13458.10024,go3100_nogo2900,6,SROF018,0.236455529,54.97787611,TRAINING,0,321,149,176,258
905,GO,,0,1,0,0,13957.15556,go3100_nogo2900,6,SROF018,0.232401606,54.91712707,TRAINING,0,321,150,176,258
906,NOGO,,0,0,1,0,13971.21543,go3100_nogo2900,6,SROF018,0.23591515,54.96688742,TRAINING,0,321,150,177,258
907,GO,,0,1,0,0,13989.25527,go3100_nogo2900,6,SROF018,0.231886044,54.90628445,TRAINING,0,321,151,177,258
908,NOGO,,0,0,1,0,14072.24443,go3100_nogo2900,6,SROF018,0.235380628,54.95594714,TRAINING,0,321,151,178,258
909,GO,1.257785797,1,0,0,0,14351.12187,go3100_nogo2900,6,SROF018,0.2372703,55.00550055,TRAINING,0,322,151,178,258
910,GO,0.914262056,1,0,0,0,778.7043221,go3100_nogo2900,7,SROF018,0.239153679,55.05494505,TRAINING,0,323,151,178,258
911,NOGO,0.318717957,0,0,0,1,805.4440069,go3100_nogo2900,7,SROF018,0.236751916,54.99451153,TRAINING,0,323,151,178,259
912,NOGO,1.615022898,0,0,0,1,1917.863591,go3100_nogo2900,7,SROF018,0.234359753,54.93421053,TRAINING,0,323,151,178,260
913,GO,0.002564192,1,0,0,0,2048.252295,go3100_nogo2900,7,SROF018,0.23623688,54.98357065,TRAINING,0,324,151,178,260
914,GO,0.005266905,1,0,0,0,2118.501658,go3100_nogo2900,7,SROF018,0.238107792,55.03282276,TRAINING,0,325,151,178,260
915,NOGO,0.87637496,0,0,0,1,2301.339909,go3100_nogo2900,7,SROF018,0.235725159,54.9726776,TRAINING,0,325,151,178,261
