"Subject","Condition","Day_of_training","Stimuli","Hits","Misses","Rejects","False_alarms","Response_time_s","PC","DP","Response_bias","Trial_number","Condition_stimuli","Subject_condition"
"female161W","Naive",1,"Songs",132,88,94,127,0.925873048517375,51.2471655328798,0.0647815868188249,-0.219785272024507,441,"Naive.Songs","female161W.Naive"
"female161W","Naive",2,"Songs",111,81,103,103,0.862762228350467,53.7688442211055,0.196064623098074,-0.0980323115490369,398,"Naive.Songs","female161W.Naive"
"female161W","Naive",3,"Songs",137,91,94,120,0.90498878240856,52.262443438914,0.102329004247932,-0.203313058606298,442,"Naive.Songs","female161W.Naive"
"female161W","Naive",4,"Songs",148,84,111,94,0.851926632157025,59.2677345537757,0.454969134671079,-0.123870631701221,437,"Naive.Songs","female161W.Naive"
"female161W","Naive",5,"Songs",122,65,106,66,0.83457072112234,63.5097493036212,0.683595301789862,-0.0478345862555356,359,"Naive.Songs","female161W.Naive"
"female161W","Naive",6,"Songs",91,63,104,60,0.861195016357616,61.3207547169811,0.569069678315701,0.0561599879299447,318,"Naive.Songs","female161W.Naive"
"female161W","Naive",7,"Songs",59,67,94,31,0.934291108411111,60.9561752988048,0.59545863488095,0.376760432755607,251,"Naive.Songs","female161W.Naive"
"female161W","Naive",8,"Songs",44,39,76,24,0.915644438808824,65.5737704918033,0.772717225726401,0.311687246617716,183,"Naive.Songs","female161W.Naive"
"female161W","Naive",9,"Songs",46,36,62,37,0.909266443144578,59.6685082872928,0.470219537029002,0.083529595449874,181,"Naive.Songs","female161W.Naive"
"female161W","Naive",10,"Songs",38,29,61,21,0.973770436559322,66.4429530201342,0.81296772138503,0.239835905942535,149,"Naive.Songs","female161W.Naive"
"female161W","Naive",11,"Songs",22,15,35,20,1.11655835880952,61.9565217391304,0.575240303595895,0.0546562975265752,92,"Naive.Songs","female161W.Naive"
"female161W","Naive",12,"Songs",18,19,32,13,0.628915771387097,60.9756097560976,0.51026375676403,0.288119811319418,82,"Naive.Songs","female161W.Naive"
"female161W","Naive",13,"Songs",84,38,90,31,0.845037843878261,71.6049382716049,1.13625642493397,0.080786595805046,243,"Naive.Songs","female161W.Naive"
"female161W","Naive",14,"Songs",42,18,48,12,0.858557793796296,75,1.33917591888589,0.154594194553433,120,"Naive.Songs","female161W.Naive"
"female265W","Naive",1,"Songs",57,28,36,40,0.778834927948454,57.7639751552795,0.370910151902705,-0.250608369958984,161,"Naive.Songs","female265W.Naive"
"female265W","Naive",2,"Songs",40,23,30,20,0.7444484154,61.9469026548673,0.587586699645934,-0.0455182567158505,113,"Naive.Songs","female265W.Naive"
"female265W","Naive",3,"Songs",56,13,38,36,0.767609311163044,65.7342657342657,0.90084362922597,-0.41699387978273,143,"Naive.Songs","female265W.Naive"
"female265W","Naive",4,"Songs",79,19,52,43,0.812487318827869,67.8756476683938,0.970264908853789,-0.367362579847799,193,"Naive.Songs","female265W.Naive"
"female265W","Naive",5,"Songs",93,13,74,41,0.667807274813433,75.5656108597285,1.50914914661282,-0.390118193968283,221,"Naive.Songs","female265W.Naive"
"female265W","Naive",6,"Songs",110,20,85,42,0.572819811736842,75.875486381323,1.44330602123445,-0.287341849442014,257,"Naive.Songs","female265W.Naive"
"Male_W147R","Naive",1,"Songs",38,7,18,27,0.461461415646154,62.2222222222222,0.734301993656746,-0.614875171481139,90,"Naive.Songs","Male_W147R.Naive"
"Male_W147R","Naive",2,"Songs",61,30,35,58,0.329519061470588,52.1739130434783,0.124081660649077,-0.373674228930224,184,"Naive.Songs","Male_W147R.Naive"
"Male_W147R","Naive",3,"Songs",19,22,17,13,0.32337775825,50.7042253521127,0.0727870215655232,0.126035861858524,71,"Naive.Songs","Male_W147R.Naive"
"Male_W147R","Naive",4,"Songs",8,8,18,14,0.231330622272727,54.1666666666667,0.152505974246244,0.0762529871231222,48,"Naive.Songs","Male_W147R.Naive"
"Male_W147R","Naive",5,"Songs",22,13,13,17,0.189671858692308,53.8461538461538,0.156209991323089,-0.24053436830283,65,"Naive.Songs","Male_W147R.Naive"
"Male_W147R","Naive",6,"Songs",75,63,62,72,0.294574354802721,50.3676470588235,0.0154399218251695,-0.100691809473659,272,"Naive.Songs","Male_W147R.Naive"
"Male_W147R","Naive",7,"Songs",51,17,22,40,0.27889705756044,56.1538461538462,0.297025082388983,-0.514618897995061,130,"Naive.Songs","Male_W147R.Naive"
"Male_W147R","Naive",8,"Songs",36,15,22,37,0.23544244569863,52.7272727272727,0.211300182335945,-0.424289455132348,110,"Naive.Songs","Male_W147R.Naive"
"Male_W147R","Naive",9,"Songs",48,11,22,29,0.333511036753247,63.6363636363636,0.702247123620694,-0.520647410379612,110,"Naive.Songs","Male_W147R.Naive"
"Male_W147R","Naive",10,"Songs",25,23,35,11,0.426512526138889,63.8297872340426,0.742502410040843,0.32007319390837,94,"Naive.Songs","Male_W147R.Naive"
"Male_W147R","Naive",11,"Songs",39,23,23,27,0.343218409621212,55.3571428571429,0.225418230883155,-0.211167107327215,112,"Naive.Songs","Male_W147R.Naive"
"Male_W147R","Naive",12,"Songs",12,20,25,13,0.53263091092,52.8571428571429,0.0870594901195533,0.352195550754711,70,"Naive.Songs","Male_W147R.Naive"
"Male_W147R","Naive",13,"Songs",31,35,44,23,0.539311170592593,56.390977443609,0.322364328004832,0.236076846456933,133,"Naive.Songs","Male_W147R.Naive"
"Male_W147R","Naive",14,"Songs",70,27,71,33,0.398634405980583,70.1492537313433,1.05138732473943,-0.0553300239917152,201,"Naive.Songs","Male_W147R.Naive"
"Male_W147R","Naive",15,"Songs",51,33,56,39,0.547201169888889,59.7765363128492,0.492398080167553,-0.0224038421037179,179,"Naive.Songs","Male_W147R.Naive"
"Male_W147R","Naive",16,"Songs",39,12,29,28,0.410309716820896,62.962962962963,0.726676439296136,-0.341727673251956,108,"Naive.Songs","Male_W147R.Naive"
"Male_W147R","Naive",17,"Songs",13,11,21,11,0.570152173416667,60.7142857142857,0.489848018363614,0.144490288670337,56,"Naive.Songs","Male_W147R.Naive"
"Male_W147R","Naive",18,"Songs",7,22,28,4,0.49001956,57.3770491803279,0.422313811897432,0.885646656144798,61,"Naive.Songs","Male_W147R.Naive"
"Male_W147R","Naive",19,"Songs",32,30,29,17,0.412570646857143,56.4814814814815,0.365459258444393,0.142931375244337,108,"Naive.Songs","Male_W147R.Naive"
"Male_W147R","Naive",20,"Songs",14,7,21,12,0.432636875423077,64.8148148148148,0.748074978991544,-0.0359458326915648,54,"Naive.Songs","Male_W147R.Naive"
"Male_W147R","Naive",21,"Songs",89,23,55,51,0.414673689435714,66.0550458715596,0.860373933279305,-0.383316946679539,218,"Naive.Songs","Male_W147R.Naive"
"Male_W147R","Naive",22,"Songs",51,21,40,19,0.524261008,69.4656488549618,0.993988318246861,-0.0432319689535511,131,"Naive.Songs","Male_W147R.Naive"
"Male_W147R","Naive",23,"Songs",17,14,16,3,0.46165150405,66,1.05235916565258,0.408409708247192,50,"Naive.Songs","Male_W147R.Naive"
"Male_W147R","Naive",24,"Songs",19,11,22,3,0.625691403045455,74.5454545454545,1.43412709094023,0.387772198491994,55,"Naive.Songs","Male_W147R.Naive"
"Male_W147R","Naive",25,"Songs",19,7,27,4,0.488154898391304,80.7017543859649,1.66697136489006,0.244029884595251,57,"Naive.Songs","Male_W147R.Naive"
"male96P","Naive",1,"Songs",20,11,18,24,0.567055458409091,52.0547945205479,0.184347770773901,-0.267956006402619,73,"Naive.Songs","male96P.Naive"
"male96P","Naive",2,"Songs",33,20,23,24,0.71899569245614,56,0.280339978875074,-0.166283668253065,100,"Naive.Songs","male96P.Naive"
"male96P","Naive",3,"Songs",9,2,13,8,0.440249765647059,68.75,1.10102715657438,-0.261704223212725,32,"Naive.Songs","male96P.Naive"
"male96P","Naive",4,"Songs",20,6,16,12,0.44948667284375,66.6666666666667,0.877662850740286,-0.26509036345837,54,"Naive.Songs","male96P.Naive"
"male96P","Naive",5,"Songs",31,20,23,35,0.585193568969697,49.5412844036697,0.0105722867542111,-0.263022779539107,109,"Naive.Songs","male96P.Naive"
"male96P","Naive",6,"Songs",57,12,17,47,0.5152970965,55.6390977443609,0.305681871772405,-0.767982040482176,133,"Naive.Songs","male96P.Naive"
"male96P","Naive",7,"Songs",43,12,30,15,0.497559156896552,73,1.18216629842486,-0.170299460473997,100,"Naive.Songs","male96P.Naive"
"male96P","Naive",8,"Songs",43,6,25,25,0.415703009102941,68.6868686868687,1.1263911290388,-0.5631955645194,99,"Naive.Songs","male96P.Naive"
"male96P","Naive",9,"Songs",47,17,33,26,0.575360043383562,65.0406504065041,0.761886060082522,-0.234198074554712,123,"Naive.Songs","male96P.Naive"
"male96P","Naive",10,"Songs",46,17,38,17,0.679250168396825,71.1864406779661,1.09122586427909,-0.0568365210248771,118,"Naive.Songs","male96P.Naive"
"male96P","Naive",11,"Songs",17,8,8,8,0.50385880468,60.9756097560976,0.448425483305935,-0.224212741652967,41,"Naive.Songs","male96P.Naive"
"male96P","Naive",12,"Songs",22,9,28,11,0.622073397545455,71.4285714285714,1.09411273811636,0.0136466628169014,70,"Naive.Songs","male96P.Naive"
"male96P","Naive",13,"Songs",34,20,29,23,0.609793240561403,59.4339622641509,0.467002740101141,-0.0911373147016049,106,"Naive.Songs","male96P.Naive"
"male96P","Naive",14,"Songs",74,17,43,25,0.464638519808081,73.5849056603774,1.21010057258707,-0.272045188096238,159,"Naive.Songs","male96P.Naive"
"male96P","Naive",15,"Songs",24,3,24,14,0.587201946631579,73.8461538461539,1.47745269672354,-0.41162303201424,65,"Naive.Songs","male96P.Naive"
"maleB86L39","Naive",1,"Songs",99,31,75,71,0.670288844688235,63.0434782608696,0.73894040930147,-0.335359805070575,276,"Naive.Songs","maleB86L39.Naive"
"maleB86L39","Naive",2,"Songs",51,22,30,19,0.842222734785714,66.3934426229508,0.792094908262507,-0.1167284196838,122,"Naive.Songs","maleB86L39.Naive"
"maleB86L39","Naive",3,"Songs",24,20,23,15,1.035850366,57.3170731707317,0.371626755738015,0.0741762233620627,82,"Naive.Songs","maleB86L39.Naive"
"maleB86L39","Naive",4,"Songs",37,11,20,19,0.782010172107143,65.5172413793103,0.754813556563321,-0.346068796260234,87,"Naive.Songs","maleB86L39.Naive"
"maleB86L39","Naive",5,"Songs",37,13,21,17,0.7923047145,65.9090909090909,0.757805328781232,-0.250001553241574,88,"Naive.Songs","maleB86L39.Naive"
"maleB86L39","Naive",6,"Songs",22,6,14,19,0.549644551658537,59.0163934426229,0.572925539701555,-0.471829787140374,61,"Naive.Songs","maleB86L39.Naive"
"maleB86L39","Naive",7,"Songs",99,23,38,86,0.520393988908108,55.6910569105691,0.372480740427128,-0.687767769191272,246,"Naive.Songs","maleB86L39.Naive"
"maleB86L39","Naive",8,"Songs",3,3,4,9,0.812323252416667,36.8421052631579,-0.463707751457179,-0.231853875728589,19,"Naive.Songs","maleB86L39.Naive"
"maleB86L39","Naive",9,"Songs",19,4,12,8,0.462438468518518,72.0930232558139,1.1281869529049,-0.323053082566425,43,"Naive.Songs","maleB86L39.Naive"
"maleB86L39","Naive",10,"Songs",37,18,17,15,0.6388118955,62.0689655172414,0.514958825154584,-0.181447789456904,87,"Naive.Songs","maleB86L39.Naive"
"maleB86L39","Naive",11,"Songs",22,10,28,18,0.933193892325,64.1025641025641,0.742693208389645,-0.101442516797445,78,"Naive.Songs","maleB86L39.Naive"
"maleB86L39","Naive",12,"Songs",26,13,22,24,0.77828670976,56.4705882352941,0.365937928570377,-0.236326788756207,85,"Naive.Songs","maleB86L39.Naive"
"maleB86L39","Naive",13,"Songs",39,12,27,40,0.81148513364557,55.9322033898305,0.463121859019923,-0.473504963390063,118,"Naive.Songs","maleB86L39.Naive"
"maleB86L39","Naive",14,"Songs",17,15,22,9,0.768656877384615,61.9047619047619,0.609441329361669,0.228689041560446,63,"Naive.Songs","maleB86L39.Naive"
"maleB86L39","Naive",15,"Songs",64,22,36,41,0.731396918095238,61.3496932515337,0.567176309238808,-0.364015428305574,163,"Naive.Songs","maleB86L39.Naive"
"maleB86L39","Naive",16,"Songs",28,13,12,22,0.71680126662,53.3333333333333,0.0976013946566093,-0.414907054128874,75,"Naive.Songs","maleB86L39.Naive"
"maleB86L39","Naive",17,"Songs",66,16,33,46,0.628102166285714,61.4906832298137,0.64084025485722,-0.525512443143819,161,"Naive.Songs","maleB86L39.Naive"
"maleB86L39","Naive",18,"Songs",41,8,33,24,0.897308478,69.811320754717,1.14988748018964,-0.379221513051377,106,"Naive.Songs","maleB86L39.Naive"
"maleB86L39","Naive",19,"Songs",52,12,28,23,0.960800453786667,69.5652173913043,0.990227934791569,-0.374309805893102,115,"Naive.Songs","maleB86L39.Naive"
"maleB86L39","Naive",20,"Songs",34,13,27,34,0.989933006941176,56.4814814814815,0.43715339138771,-0.360555466561701,108,"Naive.Songs","maleB86L39.Naive"
"maleB86L39","Naive",21,"Songs",53,20,63,31,0.975154252285714,69.4610778443114,1.02725356727995,-0.0780693978005016,167,"Naive.Songs","maleB86L39.Naive"
"maleB86L39","Naive",22,"Songs",50,27,72,24,0.882673969202703,70.5202312138728,1.04480837429353,0.143997101302826,173,"Naive.Songs","maleB86L39.Naive"
"maleB86L39","Naive",23,"Songs",88,34,104,29,1.00690443904274,75.2941176470588,1.35308224256931,0.0951481147522013,255,"Naive.Songs","maleB86L39.Naive"
"maleG47","Naive",1,"Songs",82,124,117,82,0.700936791371951,49.1358024691358,-0.0359814531702067,0.239109439582674,405,"Naive.Songs","maleG47.Naive"
"maleG47","Naive",2,"Songs",106,82,91,73,0.695837248664804,55.9659090909091,0.296982854114639,-0.0113374536459512,352,"Naive.Songs","maleG47.Naive"
"maleG47","Naive",3,"Songs",141,89,110,109,0.611036237692,55.902004454343,0.291679087030519,-0.140142630257683,449,"Naive.Songs","maleG47.Naive"
"maleG47","Naive",4,"Songs",131,72,121,82,0.586750062995305,62.0689655172414,0.612746970796174,-0.0644294515179854,406,"Naive.Songs","maleG47.Naive"
"maleG47","Naive",5,"Songs",140,90,120,81,0.577914198072398,60.3248259860789,0.519083564512689,-0.0151542450456469,431,"Naive.Songs","maleG47.Naive"
"maleG47","Naive",6,"Songs",100,49,97,70,0.661778259323529,62.3417721518987,0.64272038590544,-0.118552972720514,316,"Naive.Songs","maleG47.Naive"
"maleG47","Naive",7,"Songs",56,27,37,31,0.634101612850575,61.5894039735099,0.556357206367877,-0.168978121492507,151,"Naive.Songs","maleG47.Naive"
"maleG47","Naive",8,"Songs",65,27,54,38,0.572435189213592,64.6739130434783,0.754134011896303,-0.159744461838377,184,"Naive.Songs","maleG47.Naive"
"maleG47","Naive",9,"Songs",101,44,94,61,0.680879585555555,65,0.77896908464112,-0.121175619404347,300,"Naive.Songs","maleG47.Naive"
"maleG47","Naive",10,"Songs",138,67,131,65,0.69341798373399,67.0822942643392,0.879411689602721,-0.00665057737981919,401,"Naive.Songs","maleG47.Naive"
"maleG47","Naive",11,"Songs",166,46,116,76,0.686190942095041,69.8019801980198,1.04066031127053,-0.257583837569476,404,"Naive.Songs","maleG47.Naive"
"maleG47","Naive",12,"Songs",114,45,104,46,0.78965471834375,70.5501618122977,1.07157140597002,-0.0341076993631244,309,"Naive.Songs","maleG47.Naive"
"maleG47","Naive",13,"Songs",118,44,98,54,0.834585505901163,68.7898089171974,0.972356573169757,-0.117568098636842,314,"Naive.Songs","maleG47.Naive"
"maleG47","Naive",14,"Songs",160,48,134,67,0.845868099066079,71.8826405867971,1.16054724154657,-0.151814420397968,409,"Naive.Songs","maleG47.Naive"
"maleG47","Naive",15,"Songs",105,51,116,36,0.834953913439716,71.7532467532468,1.15630752073136,0.132781776881945,308,"Naive.Songs","maleG47.Naive"
"SRCF006","Naive",1,"Tones",51,76,76,48,0.594204411362157,50.597609561753,0.0372503273308166,0.265910379006213,251,"Naive.Tones","SRCF006.Naive"
"SRCF006","Naive",2,"Tones",66,109,104,60,0.745985248732188,50.1474926253687,0.0295385475051726,0.325925553335209,339,"Naive.Tones","SRCF006.Naive"
"SRCF006","Naive",3,"Tones",39,104,99,55,0.890954859713291,46.4646464646465,-0.236205560551514,0.481739862404764,297,"Naive.Tones","SRCF006.Naive"
"SRCF006","Naive",4,"Tones",69,88,102,77,0.72456935333879,50.8928571428571,0.0236697856452591,0.163125047343103,336,"Naive.Tones","SRCF006.Naive"
"SRCF006","Naive",5,"Tones",56,91,109,30,0.514541343201038,57.6923076923077,0.478580520331197,0.54016040964255,286,"Naive.Tones","SRCF006.Naive"
"SRCF006","Naive",6,"Tones",67,34,50,37,0.692426706735904,62.2340425531915,0.603503518694256,-0.115532380041893,188,"Naive.Tones","SRCF006.Naive"
"SRCF006","Naive",7,"Tones",75,63,72,31,0.759920221454692,60.9958506224066,0.624533731137884,0.203855095182699,241,"Naive.Tones","SRCF006.Naive"
"SRCF006","Naive",8,"Tones",64,31,100,24,0.802647279067473,74.8858447488584,1.3010925104782,0.205449730253583,219,"Naive.Tones","SRCF006.Naive"
"SRCF009","Naive",1,"Tones",39,19,37,25,0.961231883615255,63.3333333333333,0.679549943444693,-0.0987345778363197,120,"Naive.Tones","SRCF009.Naive"
"SRCF009","Naive",2,"Tones",34,40,41,25,1.03264281709315,53.5714285714286,0.203479467900202,0.202173454461571,140,"Naive.Tones","SRCF009.Naive"
"SRCF009","Naive",3,"Tones",60,25,65,33,0.785144157307122,68.3060109289617,0.951338046211171,-0.0587910651101786,183,"Naive.Tones","SRCF009.Naive"
"SRCF009","Naive",4,"Tones",34,21,26,17,0.483526127011168,61.2244897959184,0.554413199897802,-0.0179724005397448,98,"Naive.Tones","SRCF009.Naive"
"SRCF009","Naive",5,"Tones",49,33,56,22,0.575336268250371,65.625,0.812613318795689,0.162304200653478,160,"Naive.Tones","SRCF009.Naive"
"SRCF009","Naive",6,"Tones",46,39,49,19,0.389966678619385,62.0915032679739,0.677300810620122,0.236458875968377,153,"Naive.Tones","SRCF009.Naive"
"SRCF009","Naive",7,"Tones",37,38,41,20,0.498705320190965,57.3529411764706,0.421640657779011,0.227312051911363,136,"Naive.Tones","SRCF009.Naive"
"SRCF009","Naive",8,"Tones",50,45,59,19,0.510674787604291,63.0057803468208,0.749805151051113,0.309579370255829,173,"Naive.Tones","SRCF009.Naive"
"SRCF009","Naive",9,"Tones",62,24,55,41,0.437004948125302,64.2857142857143,0.759956394204687,-0.198089535869351,182,"Naive.Tones","SRCF009.Naive"
"SRCF009","Naive",10,"Tones",34,19,37,17,0.458138363034117,66.3551401869159,0.828279538831798,0.0586493515763683,107,"Naive.Tones","SRCF009.Naive"
"SRCF009","Naive",11,"Tones",44,19,40,16,0.469413022200266,70.5882352941177,1.0658887494409,0.021978567982203,119,"Naive.Tones","SRCF009.Naive"
"SRCF009","Naive",12,"Tones",43,11,49,16,0.585250005883686,77.3109243697479,1.48406938231492,-0.0675449409613766,119,"Naive.Tones","SRCF009.Naive"
"SRCF012","Naive",1,"Tones",71,73,65,39,0.357973963564092,54.8387096774194,0.298213494596122,0.1663946999599,248,"Naive.Tones","SRCF012.Naive"
"SRCF012","Naive",2,"Tones",107,72,94,71,0.473590877618683,58.4302325581395,0.420697684250468,-0.0358148045361255,344,"Naive.Tones","SRCF012.Naive"
"SRCF012","Naive",3,"Tones",56,44,58,31,0.467134314021845,60.3174603174603,0.534783699978298,0.117928616418419,189,"Naive.Tones","SRCF012.Naive"
"SRCF012","Naive",4,"Tones",84,43,77,47,0.721725003409932,64.1434262948207,0.718370389543052,-0.0537044066721284,251,"Naive.Tones","SRCF012.Naive"
"SRCF012","Naive",5,"Tones",92,44,91,37,0.567058463429296,69.3181818181818,1.0056169577236,0.0485392162587352,264,"Naive.Tones","SRCF012.Naive"
"SRCF012","Naive",6,"Tones",2,6,5,1,1.01533341407776,50,0.202182809893596,0.690547202796577,14,"Naive.Tones","SRCF012.Naive"
"SRCF012","Naive",7,"Tones",29,14,39,9,1.00367636429636,74.7252747252747,1.30486430079966,0.211263502967209,91,"Naive.Tones","SRCF012.Naive"
"SRCF012","Naive",8,"Tones",34,19,64,17,1.08611583242229,73.134328358209,1.1501195478413,0.219569356081118,134,"Naive.Tones","SRCF012.Naive"
"SRCF014","Naive",1,"Tones",50,33,16,60,0.716858113895763,41.5094339622642,-0.53520889553234,-0.524034159977205,159,"Naive.Tones","SRCF014.Naive"
"SRCF014","Naive",2,"Tones",22,13,15,21,1.00889626214671,52.112676056338,0.113979445393899,-0.261649641267426,71,"Naive.Tones","SRCF014.Naive"
"SRCF014","Naive",3,"Tones",26,19,24,23,0.903114708102479,54.3478260869565,0.218006594283821,-0.0828896183263828,92,"Naive.Tones","SRCF014.Naive"
"SRCF014","Naive",4,"Tones",25,10,16,24,0.779693126678467,54.6666666666667,0.301483291959121,-0.397780636718538,75,"Naive.Tones","SRCF014.Naive"
"SRCF014","Naive",5,"Tones",26,9,19,24,0.809370241165161,57.6923076923077,0.488494902145769,-0.387154443166877,78,"Naive.Tones","SRCF014.Naive"
"SRCF014","Naive",6,"Tones",32,20,40,7,0.79777735318893,72.7272727272727,1.29767904552957,0.361150646484798,99,"Naive.Tones","SRCF014.Naive"
"SRCF014","Naive",7,"Tones",18,7,26,12,0.61547642548879,69.8412698412698,1.02415002421023,-0.0458097507344815,63,"Naive.Tones","SRCF014.Naive"
"SRCF014","Naive",8,"Tones",54,16,44,23,0.747382461250602,71.5328467153285,1.12824332730698,-0.166862653194139,137,"Naive.Tones","SRCF014.Naive"
"SRCF014","Naive",9,"Tones",69,39,78,15,0.763979216416677,73.134328358209,1.3266326948562,0.31122618010747,201,"Naive.Tones","SRCF014.Naive"
"SROF012","Naive",1,"Tones",135,63,61,102,0.585488861623193,54.2936288088643,0.1515902833132,-0.394434505620975,361,"Naive.Tones","SROF012.Naive"
"SROF012","Naive",2,"Tones",65,61,114,55,0.642995448907216,60.6779661016949,0.489164743267685,0.205097653286044,295,"Naive.Tones","SROF012.Naive"
"SROF012","Naive",3,"Tones",127,61,149,76,0.589503735744307,66.8280871670702,0.869232379871959,-0.0180437212940665,413,"Naive.Tones","SROF012.Naive"
"SROF012","Naive",4,"Tones",88,42,111,45,0.65530624784025,69.5804195804196,1.00929650466518,0.0492947788294947,286,"Naive.Tones","SROF012.Naive"
"SROF012","Naive",5,"Tones",132,72,136,51,0.55459646449063,68.5421994884911,0.976413194759655,0.112744827144309,391,"Naive.Tones","SROF012.Naive"
"SROF012","Naive",6,"Tones",145,59,165,51,0.501830267662905,73.8095238095238,1.26759896331913,0.0811271532530258,420,"Naive.Tones","SROF012.Naive"
"SROF012","Naive",7,"Tones",101,46,137,26,0.563683564268698,76.7741935483871,1.47197363149362,0.251976260850173,310,"Naive.Tones","SROF012.Naive"
"SROF017","Naive",1,"Tones",228,125,109,172,0.536602163910866,53.1545741324921,0.0893881885750636,-0.328452222766104,634,"Naive.Tones","SROF017.Naive"
"SROF017","Naive",2,"Tones",182,94,99,224,0.421591586667329,46.9115191986644,-0.0947785296500457,-0.456701593193081,599,"Naive.Tones","SROF017.Naive"
"SROF017","Naive",3,"Tones",187,98,105,183,0.508050829011041,50.9598603839442,0.0554814461740749,-0.37272817233588,573,"Naive.Tones","SROF017.Naive"
"SROF017","Naive",4,"Tones",190,87,101,166,0.554252017749829,53.4926470588235,0.173621351525231,-0.395625112587817,544,"Naive.Tones","SROF017.Naive"
"SROF017","Naive",5,"Tones",182,55,99,112,0.664243309676242,62.7232142857143,0.651440945039758,-0.402650455458902,448,"Naive.Tones","SROF017.Naive"
"SROF017","Naive",6,"Tones",189,52,126,139,0.639880297387519,62.2529644268775,0.72127156615642,-0.42192632945314,506,"Naive.Tones","SROF017.Naive"
"SROF017","Naive",7,"Tones",169,87,135,148,0.625366455372952,56.4007421150278,0.353787618137914,-0.234295329198228,539,"Naive.Tones","SROF017.Naive"
"SROF017","Naive",8,"Tones",203,90,91,198,0.673380816666563,50.5154639175258,0.0217589119655093,-0.491150771294967,582,"Naive.Tones","SROF017.Naive"
"SROF017","Naive",9,"Tones",198,54,108,168,0.627798729906968,57.9545454545455,0.512872638119991,-0.531335753318649,528,"Naive.Tones","SROF017.Naive"
"SROF017","Naive",10,"Tones",84,31,80,51,0.775675930800261,66.6666666666667,0.887050850884122,-0.164601269683724,246,"Naive.Tones","SROF017.Naive"
"SROF017","Naive",11,"Tones",120,25,66,101,0.779975175857544,59.6153846153846,0.671771683955222,-0.600032818803534,312,"Naive.Tones","SROF017.Naive"
"SROF017","Naive",12,"Tones",121,37,96,74,0.621793193083543,66.1585365853659,0.881669110157323,-0.278884302446575,328,"Naive.Tones","SROF017.Naive"
"SROF017","Naive",13,"Tones",218,67,142,167,0.694674795324152,60.6060606060606,0.617936893382871,-0.41021487862196,594,"Naive.Tones","SROF017.Naive"
"SROF017","Naive",14,"Tones",187,35,100,123,0.681722516398276,64.4943820224719,0.868735050309369,-0.563413299938579,445,"Naive.Tones","SROF017.Naive"
"SROF017","Naive",15,"Tones",91,33,60,56,0.927663639289181,62.9166666666667,0.661734507012507,-0.288005787042375,240,"Naive.Tones","SROF017.Naive"
"SROF017","Naive",16,"Tones",185,34,154,99,0.680550034617034,71.8220338983051,1.28242810507058,-0.366407113794444,472,"Naive.Tones","SROF017.Naive"
"SROF017","Naive",17,"Tones",162,35,124,107,0.747641605072305,66.8224299065421,1.01003020079064,-0.413047948481409,428,"Naive.Tones","SROF017.Naive"
"SROF017","Naive",18,"Tones",119,31,121,48,0.589598729938804,75.2351097178683,1.37844161194596,-0.122035419217791,319,"Naive.Tones","SROF017.Naive"
"SROF017","Naive",19,"Tones",94,26,64,71,0.686603963736332,61.9607843137255,0.710993336120941,-0.420050290261907,255,"Naive.Tones","SROF017.Naive"
"SROF017","Naive",20,"Tones",183,52,101,101,0.588620133802924,64.9885583524027,0.763919435989825,-0.381959717994913,437,"Naive.Tones","SROF017.Naive"
"SROF017","Naive",21,"Tones",234,58,105,139,0.734742925889371,63.2462686567164,0.668025291839702,-0.508828297172129,536,"Naive.Tones","SROF017.Naive"
"SROF017","Naive",22,"Tones",185,43,102,86,0.775127638749971,68.9903846153846,0.984357751145884,-0.385878350928316,416,"Naive.Tones","SROF017.Naive"
"SROF017","Naive",23,"Tones",230,21,138,106,0.703254924643607,74.3434343434343,1.53460275602615,-0.602865161712901,495,"Naive.Tones","SROF017.Naive"
"SROF017","Naive",24,"Tones",200,16,101,117,0.740912951881577,69.3548387096774,1.34055028506955,-0.761969803732987,434,"Naive.Tones","SROF017.Naive"
"SROF017","Naive",25,"Tones",110,25,81,69,0.90571107811102,67.0175438596491,0.986912936996706,-0.393690090520523,285,"Naive.Tones","SROF017.Naive"
"SROF017","Naive",26,"Tones",57,14,24,34,0.811181752236335,62.7906976744186,0.622621072823777,-0.525360012829484,129,"Naive.Tones","SROF017.Naive"
"SROF017","Naive",27,"Tones",116,20,49,77,0.825807153869787,62.9770992366412,0.758065202529534,-0.658967360273428,262,"Naive.Tones","SROF017.Naive"
"SROF017","Naive",28,"Tones",153,31,65,99,0.876572726264833,62.6436781609195,0.691899207860474,-0.607148156926154,348,"Naive.Tones","SROF017.Naive"
"SROF017","Naive",29,"Tones",234,16,130,99,0.649263869534742,75.9916492693111,1.67805077564557,-0.669288917823413,479,"Naive.Tones","SROF017.Naive"
"SROF017","Naive",30,"Tones",247,23,172,138,0.715254463468279,72.2413793103448,1.49870921789054,-0.611904772659617,580,"Naive.Tones","SROF017.Naive"
"SROF018","Naive",1,"Tones",34,16,39,15,0.713236434119088,70.1923076923077,1.0353006610054,0.0597983994902031,104,"Naive.Tones","SROF018.Naive"
"SROF018","Naive",2,"Tones",16,6,20,17,0.820452906868675,61.0169491525424,0.674217141101337,-0.238000710727769,59,"Naive.Tones","SROF018.Naive"
"SROF018","Naive",3,"Tones",6,6,4,11,0.984434772940243,37.037037037037,-0.579132162255556,-0.289566081127778,27,"Naive.Tones","SROF018.Naive"
"SROF018","Naive",4,"Tones",36,32,38,27,0.671139622491503,55.6390977443609,0.283148328248086,0.0688542301238816,133,"Naive.Tones","SROF018.Naive"
"SROF018","Naive",5,"Tones",43,37,56,45,0.678950366648761,54.6961325966851,0.228547363759871,0.0213018333188615,181,"Naive.Tones","SROF018.Naive"
"SROF018","Naive",6,"Tones",50,32,50,36,0.52638784674711,59.5238095238095,0.478308945530379,-0.0360846519648059,168,"Naive.Tones","SROF018.Naive"
"SROF018","Naive",7,"Tones",34,12,32,17,0.600576232461368,69.4736842105263,1.01040604328574,-0.119882555235304,95,"Naive.Tones","SROF018.Naive"
"SROF018","Naive",8,"Tones",35,16,33,17,0.562716782093048,67.3267326732673,0.879156723857654,-0.0356623885844179,101,"Naive.Tones","SROF018.Naive"
"SROF018","Naive",9,"Tones",53,21,43,16,0.55926699914794,72.1804511278195,1.1609092644978,0.0173054937935795,133,"Naive.Tones","SROF018.Naive"
"SROF018","Naive",10,"Tones",43,22,56,21,0.577294994145632,69.7183098591549,1.00582342362931,0.0929283896273196,142,"Naive.Tones","SROF018.Naive"
"SROF018","Naive",11,"Tones",42,10,28,17,0.582992198103565,72.1649484536082,1.1527190246104,-0.272020419771089,97,"Naive.Tones","SROF018.Naive"
"SROF018","Naive",12,"Tones",44,29,42,19,0.568960772620307,64.1791044776119,0.739935870228008,0.113121467802414,134,"Naive.Tones","SROF018.Naive"
"SROF018","Naive",13,"Tones",36,9,33,13,0.756726571491786,75.8241758241758,1.38003285840396,-0.128533090154011,91,"Naive.Tones","SROF018.Naive"
"SROF018","Naive",14,"Tones",22,18,28,9,0.770729541778564,64.9350649350649,0.797070594084884,0.27595445315364,77,"Naive.Tones","SROF018.Naive"
"SROF018","Naive",15,"Tones",45,3,52,14,0.638580201035839,85.0877192982456,2.24958199843459,-0.340442793468229,114,"Naive.Tones","SROF018.Naive"
"SROF018","Naive",16,"Tones",35,19,46,3,0.53830025070592,78.6407766990291,1.84886833339694,0.551356861480701,103,"Naive.Tones","SROF018.Naive"
"SROF020","Naive",1,"Tones",33,12,27,19,0.739734305785252,65.9340659340659,0.822536078311834,-0.196293583056756,91,"Naive.Tones","SROF020.Naive"
"SROF020","Naive",2,"Tones",47,15,35,31,0.639208536881667,64.0625,0.761925208756144,-0.306067921923555,128,"Naive.Tones","SROF020.Naive"
"SROF020","Naive",3,"Tones",25,42,74,22,0.757287695052776,60.7361963190184,0.413771998277468,0.525525363103109,163,"Naive.Tones","SROF020.Naive"
"SROF020","Naive",4,"Tones",31,33,46,15,0.726512266241986,61.6,0.635916675048279,0.356531412671942,125,"Naive.Tones","SROF020.Naive"
"SROF020","Naive",5,"Tones",24,9,26,13,0.946122324144518,69.4444444444444,1.00388561010087,-0.0826470520090387,72,"Naive.Tones","SROF020.Naive"
"SROF020","Naive",6,"Tones",38,28,42,12,0.671039509773254,66.6666666666667,0.936024921078115,0.279846134224245,120,"Naive.Tones","SROF020.Naive"
"SROF020","Naive",7,"Tones",53,21,78,14,0.586865727581195,78.9156626506024,1.57454300206618,0.22412236257777,166,"Naive.Tones","SROF020.Naive"
"SROF020","Naive",8,"Tones",30,10,23,16,0.704953038152174,67.0886075949367,0.876542218231997,-0.217152396118428,79,"Naive.Tones","SROF020.Naive"
"SROF020","Naive",9,"Tones",7,6,17,1,0.709826648235321,77.4193548387097,1.50182992998193,0.661272613915201,31,"Naive.Tones","SROF020.Naive"
"SROF020","Naive",10,"Tones",7,18,11,3,0.384278798103332,46.1538461538462,0.170028528042045,0.642899026860621,39,"Naive.Tones","SROF020.Naive"
"SROF020","Naive",11,"Tones",14,4,14,8,0.417151136831804,70,1.04950259837529,-0.191746200990347,40,"Naive.Tones","SROF020.Naive"
"SROF020","Naive",12,"Tones",11,7,16,11,0.587656552141363,60,0.492702079265112,-0.0206430857723966,45,"Naive.Tones","SROF020.Naive"
"SROF020","Naive",13,"Tones",36,13,41,7,0.570525629575862,79.3814432989691,1.63620518440815,0.205289601187447,97,"Naive.Tones","SROF020.Naive"
"SROF020","Naive",14,"Tones",34,24,71,14,0.630218386650085,73.4265734265734,1.17374336034559,0.372822203755198,143,"Naive.Tones","SROF020.Naive"
