Trial_number,Trial_type,Response_time_s,Hit,Miss,Reject,False_alarm,Time_from_start,Rule,Day_of_training,Subject,d_prime_partial,%Correct_partial,Treatment,Day_of_treatment,Hit_cumsum,Miss_cumsum,CR_cumsum,FA_cumsum
1,GO,,0,1,0,0,7.200083971,go_nogo.csv,1,female265W,-0.67448975,0,TRAINING,0,0,1,0,0
2,NOGO,0.673787832,0,0,0,1,24.84008813,go_nogo.csv,1,female265W,-1.3489795,0,TRAINING,0,0,1,0,1
3,GO,,0,1,0,0,49.30005598,go_nogo.csv,1,female265W,-1.641911316,0,TRAINING,0,0,2,0,1
4,NOGO,1.684893847,0,0,0,1,69.56010604,go_nogo.csv,1,female265W,-1.934843132,0,TRAINING,0,0,2,0,2
5,GO,0.126214981,1,0,0,0,96.76008916,go_nogo.csv,1,female265W,-1.28606093,20,TRAINING,0,1,2,0,2
6,NOGO,0.85037303,0,0,0,1,120.3800571,go_nogo.csv,1,female265W,-1.468988744,16.66666667,TRAINING,0,1,2,0,3
7,GO,,0,1,0,0,147.1700761,go_nogo.csv,1,female265W,-1.674749893,14.28571429,TRAINING,0,1,3,0,3
8,GO,1.302508831,1,0,0,0,165.690088,go_nogo.csv,1,female265W,-1.360777775,25,TRAINING,0,2,3,0,3
9,NOGO,1.543899059,0,0,0,1,189.100065,go_nogo.csv,1,female265W,-1.49197996,22.22222222,TRAINING,0,2,3,0,4
10,GO,0.864624977,1,0,0,0,216.100086,go_nogo.csv,1,female265W,-1.281551566,30,TRAINING,0,3,3,0,4
11,GO,1.785495996,1,0,0,0,261.9600811,go_nogo.csv,1,female265W,-1.124240881,36.36363636,TRAINING,0,4,3,0,4
12,GO,1.241523981,1,0,0,0,310.200062,go_nogo.csv,1,female265W,-0.999335418,41.66666667,TRAINING,0,5,3,0,4
13,NOGO,,0,0,1,0,359.450084,go_nogo.csv,1,female265W,-0.392273603,46.15384615,TRAINING,0,5,3,1,4
14,NOGO,,0,0,1,0,376.970078,go_nogo.csv,1,female265W,-0.08389021,50,TRAINING,0,5,3,2,4
15,NOGO,0.272014141,0,0,0,1,433.000061,go_nogo.csv,1,female265W,-0.206560264,46.66666667,TRAINING,0,5,3,2,5
16,NOGO,0.021420956,0,0,0,1,461.8600841,go_nogo.csv,1,female265W,-0.307239651,43.75,TRAINING,0,5,3,2,6
17,NOGO,,0,0,1,0,505.700068,go_nogo.csv,1,female265W,-0.103104319,47.05882353,TRAINING,0,5,3,3,6
18,GO,0.260293007,1,0,0,0,526.9800491,go_nogo.csv,1,female265W,0,50,TRAINING,0,6,3,3,6
19,GO,1.350621939,1,0,0,0,575.670079,go_nogo.csv,1,female265W,0.087468655,52.63157895,TRAINING,0,7,3,3,6
20,GO,,0,1,0,0,621.1400661,go_nogo.csv,1,female265W,-0.066681102,50,TRAINING,0,7,4,3,6
21,GO,1.235962868,1,0,0,0,645.8500841,go_nogo.csv,1,female265W,0.010404829,52.38095238,TRAINING,0,8,4,3,6
22,NOGO,0,0,0,0,1,714.150079,go_nogo.csv,1,female265W,-0.077063825,50,TRAINING,0,8,4,3,7
23,GO,1.436336994,1,0,0,0,751.3700662,go_nogo.csv,1,female265W,-0.00908137,52.17391304,TRAINING,0,9,4,3,7
24,NOGO,,0,0,1,0,801.34006,go_nogo.csv,1,female265W,0.145068387,54.16666667,TRAINING,0,9,4,4,7
25,GO,0.585481882,1,0,0,0,816.9101,go_nogo.csv,1,female265W,0.205761149,56,TRAINING,0,10,4,4,7
26,GO,,0,1,0,0,877.5702651,go_nogo.csv,1,female265W,0.083610701,53.84615385,TRAINING,0,10,5,4,7
27,GO,0.737104893,1,0,0,0,907.4800601,go_nogo.csv,1,female265W,0.139212567,55.55555556,TRAINING,0,11,5,4,7
28,GO,,0,1,0,0,935.35008,go_nogo.csv,1,female265W,0.036851054,53.57142857,TRAINING,0,11,6,4,7
29,NOGO,,0,0,1,0,1541.140073,go_nogo.csv,1,female265W,0.161462275,55.17241379,TRAINING,0,11,6,5,7
30,GO,,0,1,0,0,1562.490062,go_nogo.csv,1,female265W,0.072965983,53.33333333,TRAINING,0,11,7,5,7
31,GO,,0,1,0,0,1821.530074,go_nogo.csv,1,female265W,-0.004909716,51.61290323,TRAINING,0,11,8,5,7
32,NOGO,0.790618896,0,0,0,1,1914.610064,go_nogo.csv,1,female265W,-0.082761579,50,TRAINING,0,11,8,5,8
33,NOGO,1.105916977,0,0,0,1,1944.57006,go_nogo.csv,1,female265W,-0.151576401,48.48484848,TRAINING,0,11,8,5,9
34,NOGO,0.748571873,0,0,0,1,2221.560085,go_nogo.csv,1,female265W,-0.213131639,47.05882353,TRAINING,0,11,8,5,10
35,GO,0.510493994,1,0,0,0,2559.990062,go_nogo.csv,1,female265W,-0.161209671,48.57142857,TRAINING,0,12,8,5,10
36,GO,1.40930891,1,0,0,0,2582.860074,go_nogo.csv,1,female265W,-0.11344071,50,TRAINING,0,13,8,5,10
37,NOGO,,0,0,1,0,2628.880081,go_nogo.csv,1,female265W,-0.010497555,51.35135135,TRAINING,0,13,8,6,10
38,NOGO,,0,0,1,0,2763.67009,go_nogo.csv,1,female265W,0.078380961,52.63157895,TRAINING,0,13,8,7,10
39,GO,1.3295331,1,0,0,0,2896.310052,go_nogo.csv,1,female265W,0.122576704,53.84615385,TRAINING,0,14,8,7,10
40,NOGO,,0,0,1,0,2916.540105,go_nogo.csv,1,female265W,0.200692246,55,TRAINING,0,14,8,8,10
41,NOGO,,0,0,1,0,3015.140083,go_nogo.csv,1,female265W,0.27029832,56.09756098,TRAINING,0,14,8,9,10
42,GO,0.065401077,1,0,0,0,3123.100071,go_nogo.csv,1,female265W,0.311388632,57.14285714,TRAINING,0,15,8,9,10
43,GO,,0,1,0,0,3343.180082,go_nogo.csv,1,female265W,0.24277401,55.81395349,TRAINING,0,15,9,9,10
44,GO,0.598460913,1,0,0,0,3444.840094,go_nogo.csv,1,female265W,0.281395685,56.81818182,TRAINING,0,16,9,9,10
45,GO,0,1,0,0,0,3471.200056,go_nogo.csv,1,female265W,0.317618864,57.77777778,TRAINING,0,17,9,9,10
46,GO,,0,1,0,0,4236.210084,go_nogo.csv,1,female265W,0.255932586,56.52173913,TRAINING,0,17,10,9,10
47,NOGO,,0,0,1,0,4649.450081,go_nogo.csv,1,female265W,0.318639364,57.44680851,TRAINING,0,17,10,10,10
48,NOGO,1.523459196,0,0,0,1,4672.880055,go_nogo.csv,1,female265W,0.26163969,56.25,TRAINING,0,17,10,10,11
49,GO,0.420329094,1,0,0,0,4708.310087,go_nogo.csv,1,female265W,0.295934312,57.14285714,TRAINING,0,18,10,10,11
50,NOGO,,0,0,1,0,4797.660067,go_nogo.csv,1,female265W,0.352933986,58,TRAINING,0,18,10,11,11
51,NOGO,0.621823072,0,0,0,1,4914.850058,go_nogo.csv,1,female265W,0.300688806,56.8627451,TRAINING,0,18,10,11,12
52,GO,,0,1,0,0,4950.950082,go_nogo.csv,1,female265W,0.244492658,55.76923077,TRAINING,0,18,11,11,12
53,NOGO,1.597896099,0,0,0,1,5004.320093,go_nogo.csv,1,female265W,0.196304118,54.71698113,TRAINING,0,18,11,11,13
54,GO,,0,1,0,0,5065.53006,go_nogo.csv,1,female265W,0.144572503,53.7037037,TRAINING,0,18,12,11,13
55,GO,0.329261065,1,0,0,0,5087.710093,go_nogo.csv,1,female265W,0.177256719,54.54545455,TRAINING,0,19,12,11,13
56,NOGO,,0,0,1,0,5134.200098,go_nogo.csv,1,female265W,0.229467366,55.35714286,TRAINING,0,19,12,12,13
57,GO,1.385346889,1,0,0,0,5148.050061,go_nogo.csv,1,female265W,0.260442732,56.14035088,TRAINING,0,20,12,12,13
58,NOGO,1.348438978,0,0,0,1,5180.500088,go_nogo.csv,1,female265W,0.215693957,55.17241379,TRAINING,0,20,12,12,14
59,GO,,0,1,0,0,5210.180068,go_nogo.csv,1,female265W,0.167995552,54.23728814,TRAINING,0,20,13,12,14
60,GO,0.570314169,1,0,0,0,5245.260049,go_nogo.csv,1,female265W,0.197534923,55,TRAINING,0,21,13,12,14
61,GO,0.328194857,1,0,0,0,5408.880081,go_nogo.csv,1,female265W,0.225667515,55.73770492,TRAINING,0,22,13,12,14
62,GO,0.83306694,1,0,0,0,5594.390074,go_nogo.csv,1,female265W,0.252513225,56.4516129,TRAINING,0,23,13,12,14
63,GO,,0,1,0,0,5795.920055,go_nogo.csv,1,female265W,0.208364672,55.55555556,TRAINING,0,23,14,12,14
64,GO,,0,1,0,0,5854.350087,go_nogo.csv,1,female265W,0.167017753,54.6875,TRAINING,0,23,15,12,14
65,NOGO,,0,0,1,0,5919.410074,go_nogo.csv,1,female265W,0.215213425,55.38461538,TRAINING,0,23,15,13,14
66,NOGO,,0,0,1,0,5944.020059,go_nogo.csv,1,female265W,0.259989601,56.06060606,TRAINING,0,23,15,14,14
67,NOGO,,0,0,1,0,5965.360086,go_nogo.csv,1,female265W,0.301778899,56.71641791,TRAINING,0,23,15,15,14
68,GO,0,1,0,0,0,6003.050071,go_nogo.csv,1,female265W,0.327630173,57.35294118,TRAINING,0,24,15,15,14
69,GO,,0,1,0,0,6181.890059,go_nogo.csv,1,female265W,0.288828289,56.52173913,TRAINING,0,24,16,15,14
70,NOGO,1.006408215,0,0,0,1,6380.430112,go_nogo.csv,1,female265W,0.247038991,55.71428571,TRAINING,0,24,16,15,15
71,NOGO,,0,0,1,0,6409.480067,go_nogo.csv,1,female265W,0.286215076,56.33802817,TRAINING,0,24,16,16,15
72,NOGO,0.358286142,0,0,0,1,6448.980062,go_nogo.csv,1,female265W,0.247038991,55.55555556,TRAINING,0,24,16,16,16
73,GO,,0,1,0,0,6473.880082,go_nogo.csv,1,female265W,0.210428394,54.79452055,TRAINING,0,24,17,16,16
74,GO,,0,1,0,0,6494.250067,go_nogo.csv,1,female265W,0.175782121,54.05405405,TRAINING,0,24,18,16,16
75,GO,1.535708904,1,0,0,0,6534.150056,go_nogo.csv,1,female265W,0.20073078,54.66666667,TRAINING,0,25,18,16,16
76,GO,0,1,0,0,0,6667.290113,go_nogo.csv,1,female265W,0.224687715,55.26315789,TRAINING,0,26,18,16,16
77,NOGO,,0,0,1,0,7082.150076,go_nogo.csv,1,female265W,0.261558248,55.84415584,TRAINING,0,26,18,17,16
78,GO,1.118275881,1,0,0,0,7107.150083,go_nogo.csv,1,female265W,0.284594707,56.41025641,TRAINING,0,27,18,17,16
79,GO,0.642153025,1,0,0,0,7152.950087,go_nogo.csv,1,female265W,0.30677462,56.96202532,TRAINING,0,28,18,17,16
80,GO,0.479253054,1,0,0,0,7178.710117,go_nogo.csv,1,female265W,0.328155566,57.5,TRAINING,0,29,18,17,16
81,NOGO,,0,0,1,0,7200.400081,go_nogo.csv,1,female265W,0.362964317,58.02469136,TRAINING,0,29,18,18,16
82,GO,0.010955095,1,0,0,0,7309.920082,go_nogo.csv,1,female265W,0.383598339,58.53658537,TRAINING,0,30,18,18,16
83,GO,,0,1,0,0,7507.620105,go_nogo.csv,1,female265W,0.350998318,57.8313253,TRAINING,0,30,19,18,16
84,GO,0.828860044,1,0,0,0,7548.950059,go_nogo.csv,1,female265W,0.370986194,58.33333333,TRAINING,0,31,19,18,16
85,NOGO,,0,0,1,0,8491.370096,go_nogo.csv,1,female265W,0.403940366,58.82352941,TRAINING,0,31,19,19,16
86,NOGO,,0,0,1,0,8523.47007,go_nogo.csv,1,female265W,0.435217591,59.30232558,TRAINING,0,31,19,20,16
87,NOGO,0.962820053,0,0,0,1,8540.840063,go_nogo.csv,1,female265W,0.39841477,58.62068966,TRAINING,0,31,19,20,17
88,NOGO,0.538420916,0,0,0,1,8586.330088,go_nogo.csv,1,female265W,0.363623746,57.95454545,TRAINING,0,31,19,20,18
89,NOGO,,0,0,1,0,8870.560092,go_nogo.csv,1,female265W,0.393444325,58.42696629,TRAINING,0,31,19,21,18
90,NOGO,,0,0,1,0,8908.990063,go_nogo.csv,1,female265W,0.421887754,58.88888889,TRAINING,0,31,19,22,18
91,NOGO,,0,0,1,0,8939.770082,go_nogo.csv,1,female265W,0.449068923,59.34065934,TRAINING,0,31,19,23,18
92,NOGO,0.961709976,0,0,0,1,8983.360072,go_nogo.csv,1,female265W,0.416159657,58.69565217,TRAINING,0,31,19,23,19
93,GO,0.130096912,1,0,0,0,9038.660083,go_nogo.csv,1,female265W,0.435492111,59.13978495,TRAINING,0,32,19,23,19
94,GO,0.930727959,1,0,0,0,9312.330077,go_nogo.csv,1,female265W,0.454208074,59.57446809,TRAINING,0,33,19,23,19
95,GO,,0,1,0,0,9401.250068,go_nogo.csv,1,female265W,0.423306404,58.94736842,TRAINING,0,33,20,23,19
96,NOGO,0.164891958,0,0,0,1,10117.97006,go_nogo.csv,1,female265W,0.392011161,58.33333333,TRAINING,0,33,20,23,20
97,GO,0.22625494,1,0,0,0,10142.83008,go_nogo.csv,1,female265W,0.410196188,58.7628866,TRAINING,0,34,20,23,20
98,NOGO,,0,0,1,0,10758.5801,go_nogo.csv,1,female265W,0.436275839,59.18367347,TRAINING,0,34,20,24,20
99,NOGO,0.037950039,0,0,0,1,11346.19007,go_nogo.csv,1,female265W,0.406467793,58.58585859,TRAINING,0,34,20,24,21
100,GO,1.187242031,1,0,0,0,11598.69009,go_nogo.csv,1,female265W,0.424105558,59,TRAINING,0,35,20,24,21
101,NOGO,0.075870037,0,0,0,1,11724.01006,go_nogo.csv,1,female265W,0.395634274,58.41584158,TRAINING,0,35,20,24,22
102,NOGO,,0,0,1,0,12122.98008,go_nogo.csv,1,female265W,0.420688862,58.82352941,TRAINING,0,35,20,25,22
103,GO,1.511386156,1,0,0,0,12240.1201,go_nogo.csv,1,female265W,0.437809243,59.22330097,TRAINING,0,36,20,25,22
104,NOGO,0.109810114,0,0,0,1,12496.35009,go_nogo.csv,1,female265W,0.410574841,58.65384615,TRAINING,0,36,20,25,23
105,GO,0.464879036,1,0,0,0,12777.90006,go_nogo.csv,1,female265W,0.427205377,59.04761905,TRAINING,0,37,20,25,23
106,GO,0.37375617,1,0,0,0,12933.34011,go_nogo.csv,1,female265W,0.443371501,59.43396226,TRAINING,0,38,20,25,23
107,NOGO,1.90561986,0,0,0,1,12957.19006,go_nogo.csv,1,female265W,0.417262398,58.87850467,TRAINING,0,38,20,25,24
108,NOGO,,0,0,1,0,12998.93024,go_nogo.csv,1,female265W,0.441362869,59.25925926,TRAINING,0,38,20,26,24
109,GO,1.310528994,1,0,0,0,13013.11008,go_nogo.csv,1,female265W,0.45708812,59.63302752,TRAINING,0,39,20,26,24
110,NOGO,,0,0,1,0,13246.22006,go_nogo.csv,1,female265W,0.480288447,60,TRAINING,0,39,20,27,24
111,GO,,0,1,0,0,13267.52005,go_nogo.csv,1,female265W,0.45105977,59.45945946,TRAINING,0,39,21,27,24
112,NOGO,,0,0,1,0,13314.48011,go_nogo.csv,1,female265W,0.473421306,59.82142857,TRAINING,0,39,21,28,24
113,NOGO,1.101701975,0,0,0,1,13328.75008,go_nogo.csv,1,female265W,0.448374984,59.2920354,TRAINING,0,39,21,28,25
114,GO,0.143728971,1,0,0,0,13497.65009,go_nogo.csv,1,female265W,0.463729147,59.64912281,TRAINING,0,40,21,28,25
115,GO,0.017950058,1,0,0,0,13583.88008,go_nogo.csv,1,female265W,0.478684891,60,TRAINING,0,41,21,28,25
116,GO,,0,1,0,0,13621.61006,go_nogo.csv,1,female265W,0.450790375,59.48275862,TRAINING,0,41,22,28,25
117,NOGO,0.109804153,0,0,0,1,13794.40005,go_nogo.csv,1,female265W,0.426696303,58.97435897,TRAINING,0,41,22,28,26
118,GO,0,1,0,0,0,13822.04009,go_nogo.csv,1,female265W,0.441316144,59.3220339,TRAINING,0,42,22,28,26
119,NOGO,0.325201988,0,0,0,1,13893.53007,go_nogo.csv,1,female265W,0.418107774,58.82352941,TRAINING,0,42,22,28,27
120,GO,,0,1,0,0,13931.93005,go_nogo.csv,1,female265W,0.391391216,58.33333333,TRAINING,0,42,23,28,27
121,GO,1.16673398,1,0,0,0,13947.9201,go_nogo.csv,1,female265W,0.405688955,58.67768595,TRAINING,0,43,23,28,27
122,NOGO,1.662919044,0,0,0,1,13977.32008,go_nogo.csv,1,female265W,0.383306477,58.19672131,TRAINING,0,43,23,28,28
123,NOGO,,0,0,1,0,14024.31009,go_nogo.csv,1,female265W,0.404917023,58.53658537,TRAINING,0,43,23,29,28
124,NOGO,0.674491167,0,0,0,1,14221.33007,go_nogo.csv,1,female265W,0.383306477,58.06451613,TRAINING,0,43,23,29,29
125,GO,,0,1,0,0,14774.64006,go_nogo.csv,1,female265W,0.35767274,57.6,TRAINING,0,43,24,29,29
126,NOGO,0.539243937,0,0,0,1,14795.23005,go_nogo.csv,1,female265W,0.336782652,57.14285714,TRAINING,0,43,24,29,30
127,GO,1.036087036,1,0,0,0,14837.12008,go_nogo.csv,1,female265W,0.350771366,57.48031496,TRAINING,0,44,24,29,30
128,GO,1.119791031,1,0,0,0,14959.92007,go_nogo.csv,1,female265W,0.364430378,57.8125,TRAINING,0,45,24,29,30
129,NOGO,,0,0,1,0,15071.72006,go_nogo.csv,1,female265W,0.385320466,58.13953488,TRAINING,0,45,24,30,30
130,NOGO,,0,0,1,0,15088.3301,go_nogo.csv,1,female265W,0.405536587,58.46153846,TRAINING,0,45,24,31,30
131,GO,,0,1,0,0,15102.01009,go_nogo.csv,1,female265W,0.380934667,58.01526718,TRAINING,0,45,25,31,30
132,GO,,0,1,0,0,15114.80005,go_nogo.csv,1,female265W,0.3572238,57.57575758,TRAINING,0,45,26,31,30
133,NOGO,1.11800909,0,0,0,1,16449.7401,go_nogo.csv,1,female265W,0.337007679,57.14285714,TRAINING,0,45,26,31,31
134,GO,1.22553587,1,0,0,0,16482.01008,go_nogo.csv,1,female265W,0.350414831,57.46268657,TRAINING,0,46,26,31,31
135,NOGO,1.877597094,0,0,0,1,16613.25006,go_nogo.csv,1,female265W,0.330830546,57.03703704,TRAINING,0,46,26,31,32
136,GO,1.989600897,1,0,0,0,16675.57027,go_nogo.csv,1,female265W,0.343936062,57.35294118,TRAINING,0,47,26,31,32
137,NOGO,0.142830849,0,0,0,1,16738.63006,go_nogo.csv,1,female265W,0.324947272,56.93430657,TRAINING,0,47,26,31,33
138,GO,1.535459042,1,0,0,0,16790.80005,go_nogo.csv,1,female265W,0.337763533,57.24637681,TRAINING,0,48,26,31,33
139,NOGO,0.776339054,0,0,0,1,16821.78006,go_nogo.csv,1,female265W,0.319336934,56.83453237,TRAINING,0,48,26,31,34
140,GO,0.200772047,1,0,0,0,16874.72007,go_nogo.csv,1,female265W,0.33187559,57.14285714,TRAINING,0,49,26,31,34
141,GO,0.691215038,1,0,0,0,16991.85005,go_nogo.csv,1,female265W,0.344147612,57.44680851,TRAINING,0,50,26,31,34
142,NOGO,1.101333857,0,0,0,1,17018.11007,go_nogo.csv,1,female265W,0.326252604,57.04225352,TRAINING,0,50,26,31,35
143,NOGO,1.278444052,0,0,0,1,17055.09006,go_nogo.csv,1,female265W,0.308861005,56.64335664,TRAINING,0,50,26,31,36
144,NOGO,0,0,0,0,1,17084.97007,go_nogo.csv,1,female265W,0.291946805,56.25,TRAINING,0,50,26,31,37
145,GO,0.039906979,1,0,0,0,17122.0901,go_nogo.csv,1,female265W,0.303962539,56.55172414,TRAINING,0,51,26,31,37
146,GO,0.13558507,1,0,0,0,17197.75007,go_nogo.csv,1,female265W,0.315731752,56.84931507,TRAINING,0,52,26,31,37
147,GO,,0,1,0,0,17285.45008,go_nogo.csv,1,female265W,0.293049584,56.46258503,TRAINING,0,52,27,31,37
148,NOGO,0.163727999,0,0,0,1,17316.37007,go_nogo.csv,1,female265W,0.276588718,56.08108108,TRAINING,0,52,27,31,38
149,GO,0,1,0,0,0,17345.43005,go_nogo.csv,1,female265W,0.288149901,56.37583893,TRAINING,0,53,27,31,38
150,GO,0.544862032,1,0,0,0,17370.93008,go_nogo.csv,1,female265W,0.299482649,56.66666667,TRAINING,0,54,27,31,38
151,NOGO,,0,0,1,0,17458.79009,go_nogo.csv,1,female265W,0.319031325,56.95364238,TRAINING,0,54,27,32,38
152,NOGO,,0,0,1,0,17477.35005,go_nogo.csv,1,female265W,0.337998114,57.23684211,TRAINING,0,54,27,33,38
153,GO,1.930022001,1,0,0,0,17637.89005,go_nogo.csv,1,female265W,0.349110669,57.51633987,TRAINING,0,55,27,33,38
154,GO,0.752665043,1,0,0,0,17664.90009,go_nogo.csv,1,female265W,0.360010843,57.79220779,TRAINING,0,56,27,33,38
155,NOGO,,0,0,1,0,17679.65006,go_nogo.csv,1,female265W,0.378427907,58.06451613,TRAINING,0,56,27,34,38
156,NOGO,1.817451954,0,0,0,1,17708.58004,go_nogo.csv,1,female265W,0.362371868,57.69230769,TRAINING,0,56,27,34,39
157,NOGO,,0,0,1,0,17773.35007,go_nogo.csv,1,female265W,0.380263449,57.96178344,TRAINING,0,56,27,35,39
158,GO,,0,1,0,0,17799.44006,go_nogo.csv,1,female265W,0.358447552,57.59493671,TRAINING,0,56,28,35,39
159,NOGO,1.415460825,0,0,0,1,17920.71007,go_nogo.csv,1,female265W,0.342792294,57.2327044,TRAINING,0,56,28,35,40
160,NOGO,,0,0,1,0,17953.08007,go_nogo.csv,1,female265W,0.360187533,57.5,TRAINING,0,56,28,36,40
161,GO,0.551655054,1,0,0,0,17979.20008,go_nogo.csv,1,female265W,0.370910152,57.76397516,TRAINING,0,57,28,36,40
162,GO,,0,1,0,0,7.920288086,go_nogo.csv,2,female265W,0.349820729,57.40740741,TRAINING,0,57,29,36,40
163,GO,0.518002987,1,0,0,0,27.87010217,go_nogo.csv,2,female265W,0.360370959,57.66871166,TRAINING,0,58,29,36,40
164,NOGO,0.147717953,0,0,0,1,645.1301041,go_nogo.csv,2,female265W,0.345096979,57.31707317,TRAINING,0,58,29,36,41
165,NOGO,,0,0,1,0,676.7200751,go_nogo.csv,2,female265W,0.362022657,57.57575758,TRAINING,0,58,29,37,41
166,GO,0.295128107,1,0,0,0,775.9200962,go_nogo.csv,2,female265W,0.372381779,57.8313253,TRAINING,0,59,29,37,41
167,GO,1.427536964,1,0,0,0,841.2600861,go_nogo.csv,2,female265W,0.38255612,58.08383234,TRAINING,0,60,29,37,41
168,GO,,0,1,0,0,864.900104,go_nogo.csv,2,female265W,0.362194002,57.73809524,TRAINING,0,60,30,37,41
169,GO,,0,1,0,0,885.420114,go_nogo.csv,2,female265W,0.342443954,57.3964497,TRAINING,0,60,31,37,41
170,NOGO,,0,0,1,0,922.9300821,go_nogo.csv,2,female265W,0.358928953,57.64705882,TRAINING,0,60,31,38,41
171,GO,0.873129129,1,0,0,0,1081.320086,go_nogo.csv,2,female265W,0.368970624,57.89473684,TRAINING,0,61,31,38,41
172,NOGO,,0,0,1,0,1132.100119,go_nogo.csv,2,female265W,0.385036251,58.13953488,TRAINING,0,61,31,39,41
173,NOGO,1.14992404,0,0,0,1,1150.050108,go_nogo.csv,2,female265W,0.370118185,57.80346821,TRAINING,0,61,31,39,42
174,NOGO,,0,0,1,0,1187.880074,go_nogo.csv,2,female265W,0.385782287,58.04597701,TRAINING,0,61,31,40,42
175,GO,1.858102083,1,0,0,0,1611.980103,go_nogo.csv,2,female265W,0.395651084,58.28571429,TRAINING,0,62,31,40,42
176,NOGO,0.006078959,0,0,0,1,1712.410087,go_nogo.csv,2,female265W,0.38107984,57.95454545,TRAINING,0,62,31,40,43
177,GO,0.617666006,1,0,0,0,1809.640078,go_nogo.csv,2,female265W,0.390781209,58.1920904,TRAINING,0,63,31,40,43
178,GO,1.276484966,1,0,0,0,1910.570112,go_nogo.csv,2,female265W,0.400320348,58.42696629,TRAINING,0,64,31,40,43
179,NOGO,,0,0,1,0,1962.540088,go_nogo.csv,2,female265W,0.415602505,58.65921788,TRAINING,0,64,31,41,43
180,NOGO,0,0,0,0,1,2309.680074,go_nogo.csv,2,female265W,0.401362327,58.33333333,TRAINING,0,64,31,41,44
181,GO,0,1,0,0,0,2530.120101,go_nogo.csv,2,female265W,0.4107442,58.56353591,TRAINING,0,65,31,41,44
182,NOGO,1.308160067,0,0,0,1,2758.670096,go_nogo.csv,2,female265W,0.396822833,58.24175824,TRAINING,0,65,31,41,45
183,GO,1.014928102,1,0,0,0,2971.86008,go_nogo.csv,2,female265W,0.406052186,58.46994536,TRAINING,0,66,31,41,45
184,GO,,0,1,0,0,3067.280091,go_nogo.csv,2,female265W,0.387004191,58.15217391,TRAINING,0,66,32,41,45
185,NOGO,,0,0,1,0,3088.720101,go_nogo.csv,2,female265W,0.401920129,58.37837838,TRAINING,0,66,32,42,45
186,NOGO,,0,0,1,0,3166.180084,go_nogo.csv,2,female265W,0.416491669,58.60215054,TRAINING,0,66,32,43,45
187,NOGO,,0,0,1,0,3180.770116,go_nogo.csv,2,female265W,0.430733593,58.82352941,TRAINING,0,66,32,44,45
188,NOGO,,0,0,1,0,3422.650081,go_nogo.csv,2,female265W,0.444659756,59.04255319,TRAINING,0,66,32,45,45
189,GO,0.099153996,1,0,0,0,3843.790075,go_nogo.csv,2,female265W,0.45376219,59.25925926,TRAINING,0,67,32,45,45
190,GO,0.465579033,1,0,0,0,4113.960094,go_nogo.csv,2,female265W,0.46272101,59.47368421,TRAINING,0,68,32,45,45
191,GO,0.151032925,1,0,0,0,4173.980086,go_nogo.csv,2,female265W,0.471540364,59.68586387,TRAINING,0,69,32,45,45
192,GO,0.918137074,1,0,0,0,4285.670081,go_nogo.csv,2,female265W,0.480224228,59.89583333,TRAINING,0,70,32,45,45
193,NOGO,,0,0,1,0,4340.130104,go_nogo.csv,2,female265W,0.493847629,60.10362694,TRAINING,0,70,32,46,45
194,NOGO,1.273452997,0,0,0,1,4364.290087,go_nogo.csv,2,female265W,0.480224228,59.79381443,TRAINING,0,70,32,46,46
195,NOGO,,0,0,1,0,4555.380101,go_nogo.csv,2,female265W,0.493557752,60,TRAINING,0,70,32,47,46
196,NOGO,,0,0,1,0,4581.950301,go_nogo.csv,2,female265W,0.506612851,60.20408163,TRAINING,0,70,32,48,46
197,GO,1.696727991,1,0,0,0,4600.460115,go_nogo.csv,2,female265W,0.515165034,60.40609137,TRAINING,0,71,32,48,46
198,GO,0.26046586,1,0,0,0,4692.920086,go_nogo.csv,2,female265W,0.523589194,60.60606061,TRAINING,0,72,32,48,46
199,NOGO,,0,0,1,0,4766.570124,go_nogo.csv,2,female265W,0.536376656,60.8040201,TRAINING,0,72,32,49,46
200,NOGO,0.398743868,0,0,0,1,5045.280096,go_nogo.csv,2,female265W,0.523044976,60.5,TRAINING,0,72,32,49,47
201,GO,0,1,0,0,0,5095.290085,go_nogo.csv,2,female265W,0.531344621,60.69651741,TRAINING,0,73,32,49,47
202,GO,0.344321012,1,0,0,0,5400.960097,go_nogo.csv,2,female265W,0.539523121,60.89108911,TRAINING,0,74,32,49,47
203,NOGO,0.616476059,0,0,0,1,5512.060087,go_nogo.csv,2,female265W,0.526467984,60.591133,TRAINING,0,74,32,49,48
204,GO,0,1,0,0,0,5542.40007,go_nogo.csv,2,female265W,0.534528577,60.78431373,TRAINING,0,75,32,49,48
205,GO,,0,1,0,0,5982.400101,go_nogo.csv,2,female265W,0.516195204,60.48780488,TRAINING,0,75,33,49,48
206,GO,,0,1,0,0,6143.240124,go_nogo.csv,2,female265W,0.498358343,60.19417476,TRAINING,0,75,34,49,48
207,NOGO,,0,0,1,0,6267.12009,go_nogo.csv,2,female265W,0.510891258,60.38647343,TRAINING,0,75,34,50,48
208,NOGO,1.023147106,0,0,0,1,6455.010095,go_nogo.csv,2,female265W,0.498102544,60.09615385,TRAINING,0,75,34,50,49
209,GO,0.20400691,1,0,0,0,6674.870098,go_nogo.csv,2,female265W,0.506086865,60.28708134,TRAINING,0,76,34,50,49
210,GO,1.661465883,1,0,0,0,6964.090076,go_nogo.csv,2,female265W,0.513959351,60.47619048,TRAINING,0,77,34,50,49
211,NOGO,0.349429131,0,0,0,1,7029.220132,go_nogo.csv,2,female265W,0.501425882,60.18957346,TRAINING,0,77,34,50,50
212,GO,,0,1,0,0,7161.480086,go_nogo.csv,2,female265W,0.484094811,59.90566038,TRAINING,0,77,35,50,50
213,NOGO,,0,0,1,0,7256.480074,go_nogo.csv,2,female265W,0.496382513,60.09389671,TRAINING,0,77,35,51,50
214,NOGO,,0,0,1,0,7438.530128,go_nogo.csv,2,female265W,0.50843341,60.28037383,TRAINING,0,77,35,52,50
215,GO,,0,1,0,0,7582.020092,go_nogo.csv,2,female265W,0.49154687,60,TRAINING,0,77,36,52,50
216,GO,1.420166969,1,0,0,0,7600.580104,go_nogo.csv,2,female265W,0.499344723,60.18518519,TRAINING,0,78,36,52,50
217,NOGO,0.732496977,0,0,0,1,7720.340111,go_nogo.csv,2,female265W,0.487057513,59.9078341,TRAINING,0,78,36,52,51
218,GO,0.148630142,1,0,0,0,7942.280083,go_nogo.csv,2,female265W,0.494749162,60.09174312,TRAINING,0,79,36,52,51
219,GO,0,1,0,0,0,8011.970106,go_nogo.csv,2,female265W,0.50233726,60.2739726,TRAINING,0,80,36,52,51
220,NOGO,1.23141408,0,0,0,1,8120.450104,go_nogo.csv,2,female265W,0.490285871,60,TRAINING,0,80,36,52,52
221,NOGO,0.68750596,0,0,0,1,8147.270091,go_nogo.csv,2,female265W,0.478461877,59.72850679,TRAINING,0,80,36,52,53
222,NOGO,,0,0,1,0,8227.750081,go_nogo.csv,2,female265W,0.490285871,59.90990991,TRAINING,0,80,36,53,53
223,NOGO,1.302913189,0,0,0,1,8337.52013,go_nogo.csv,2,female265W,0.47868085,59.64125561,TRAINING,0,80,36,53,54
224,GO,1.936436176,1,0,0,0,8364.500115,go_nogo.csv,2,female265W,0.486167952,59.82142857,TRAINING,0,81,36,53,54
225,GO,0.215646982,1,0,0,0,8503.200078,go_nogo.csv,2,female265W,0.493556523,60,TRAINING,0,82,36,53,54
226,GO,0.116799116,1,0,0,0,8639.710097,go_nogo.csv,2,female265W,0.50084894,60.17699115,TRAINING,0,83,36,53,54
227,GO,1.346081018,1,0,0,0,8678.960106,go_nogo.csv,2,female265W,0.508047499,60.35242291,TRAINING,0,84,36,53,54
228,GO,1.667387009,1,0,0,0,8803.46008,go_nogo.csv,2,female265W,0.515154414,60.52631579,TRAINING,0,85,36,53,54
229,GO,0.17591691,1,0,0,0,8828.850096,go_nogo.csv,2,female265W,0.522171825,60.69868996,TRAINING,0,86,36,53,54
230,GO,0,1,0,0,0,8863.050103,go_nogo.csv,2,female265W,0.529101798,60.86956522,TRAINING,0,87,36,53,54
231,GO,,0,1,0,0,8892.61008,go_nogo.csv,2,female265W,0.512795492,60.60606061,TRAINING,0,87,37,53,54
232,GO,,0,1,0,0,8988.350105,go_nogo.csv,2,female265W,0.496883038,60.34482759,TRAINING,0,87,38,53,54
233,GO,1.803980827,1,0,0,0,9032.780091,go_nogo.csv,2,female265W,0.503758222,60.51502146,TRAINING,0,88,38,53,54
234,GO,0.200949907,1,0,0,0,9151.070115,go_nogo.csv,2,female265W,0.510549857,60.68376068,TRAINING,0,89,38,53,54
235,NOGO,0.788967133,0,0,0,1,9242.660121,go_nogo.csv,2,female265W,0.499156261,60.42553191,TRAINING,0,89,38,53,55
236,NOGO,,0,0,1,0,9293.730109,go_nogo.csv,2,female265W,0.510760866,60.59322034,TRAINING,0,89,38,54,55
237,NOGO,,0,0,1,0,9308.130078,go_nogo.csv,2,female265W,0.522154878,60.75949367,TRAINING,0,89,38,55,55
238,NOGO,,0,0,1,0,9791.260101,go_nogo.csv,2,female265W,0.533345416,60.92436975,TRAINING,0,89,38,56,55
239,GO,,0,1,0,0,9955.950103,go_nogo.csv,2,female265W,0.517836717,60.66945607,TRAINING,0,89,39,56,55
240,NOGO,,0,0,1,0,9996.410076,go_nogo.csv,2,female265W,0.528830549,60.83333333,TRAINING,0,89,39,57,55
241,NOGO,0.908507109,0,0,0,1,10223.2101,go_nogo.csv,2,female265W,0.517640384,60.58091286,TRAINING,0,89,39,57,56
242,GO,,0,1,0,0,10331.70009,go_nogo.csv,2,female265W,0.502488448,60.33057851,TRAINING,0,89,40,57,56
243,NOGO,,0,0,1,0,10729.50009,go_nogo.csv,2,female265W,0.513292737,60.49382716,TRAINING,0,89,40,58,56
244,GO,1.710619211,1,0,0,0,10820.1001,go_nogo.csv,2,female265W,0.52003038,60.6557377,TRAINING,0,90,40,58,56
245,NOGO,,0,0,1,0,11022.68011,go_nogo.csv,2,female265W,0.53065086,60.81632653,TRAINING,0,90,40,59,56
246,NOGO,,0,0,1,0,11081.7201,go_nogo.csv,2,female265W,0.541093352,60.97560976,TRAINING,0,90,40,60,56
247,GO,,0,1,0,0,11142.78012,go_nogo.csv,2,female265W,0.52629509,60.72874494,TRAINING,0,90,41,60,56
248,NOGO,,0,0,1,0,11157.6701,go_nogo.csv,2,female265W,0.536565142,60.88709677,TRAINING,0,90,41,61,56
249,GO,,0,1,0,0,11171.37008,go_nogo.csv,2,female265W,0.522092195,60.64257028,TRAINING,0,90,42,61,56
250,GO,0,1,0,0,0,11185.37007,go_nogo.csv,2,female265W,0.528775048,60.8,TRAINING,0,91,42,61,56
251,GO,,0,1,0,0,11356.45009,go_nogo.csv,2,female265W,0.514625213,60.55776892,TRAINING,0,91,43,61,56
252,NOGO,0.148940086,0,0,0,1,11387.43011,go_nogo.csv,2,female265W,0.50363437,60.31746032,TRAINING,0,91,43,61,57
253,NOGO,,0,0,1,0,11717.75009,go_nogo.csv,2,female265W,0.513738875,60.4743083,TRAINING,0,91,43,62,57
254,NOGO,,0,0,1,0,11821.01031,go_nogo.csv,2,female265W,0.523681563,60.62992126,TRAINING,0,91,43,63,57
255,NOGO,,0,0,1,0,11869.4701,go_nogo.csv,2,female265W,0.533467252,60.78431373,TRAINING,0,91,43,64,57
256,GO,,0,1,0,0,12377.56012,go_nogo.csv,2,female265W,0.519615311,60.546875,TRAINING,0,91,44,64,57
257,NOGO,,0,0,1,0,12475.9501,go_nogo.csv,2,female265W,0.529248609,60.70038911,TRAINING,0,91,44,65,57
258,GO,,0,1,0,0,13063.8501,go_nogo.csv,2,female265W,0.51568241,60.46511628,TRAINING,0,91,45,65,57
259,GO,1.193128109,1,0,0,0,13102.48008,go_nogo.csv,2,female265W,0.522320538,60.61776062,TRAINING,0,92,45,65,57
260,GO,,0,1,0,0,13161.91009,go_nogo.csv,2,female265W,0.509038795,60.38461538,TRAINING,0,92,46,65,57
261,NOGO,1.437026024,0,0,0,1,13180.66011,go_nogo.csv,2,female265W,0.498242675,60.1532567,TRAINING,0,92,46,65,58
262,NOGO,1.07840085,0,0,0,1,13442.94007,go_nogo.csv,2,female265W,0.487627351,59.92366412,TRAINING,0,92,46,65,59
263,GO,,0,1,0,0,13469.5001,go_nogo.csv,2,female265W,0.474608741,59.69581749,TRAINING,0,92,47,65,59
264,GO,,0,1,0,0,13535.27008,go_nogo.csv,2,female265W,0.46184319,59.46969697,TRAINING,0,92,48,65,59
265,GO,0.596012831,1,0,0,0,13720.17008,go_nogo.csv,2,female265W,0.468433903,59.62264151,TRAINING,0,93,48,65,59
266,NOGO,,0,0,1,0,13755.86011,go_nogo.csv,2,female265W,0.477923412,59.77443609,TRAINING,0,93,48,66,59
267,GO,,0,1,0,0,13869.44008,go_nogo.csv,2,female265W,0.465410216,59.5505618,TRAINING,0,93,49,66,59
268,GO,0.030575037,1,0,0,0,13894.53007,go_nogo.csv,2,female265W,0.471934986,59.70149254,TRAINING,0,94,49,66,59
269,GO,,0,1,0,0,15438.4601,go_nogo.csv,2,female265W,0.459664396,59.4795539,TRAINING,0,94,50,66,59
270,GO,1.70856595,1,0,0,0,15459.53008,go_nogo.csv,2,female265W,0.466124433,59.62962963,TRAINING,0,95,50,66,59
271,NOGO,0.016313076,0,0,0,1,16374.35007,go_nogo.csv,2,female265W,0.455685846,59.4095941,TRAINING,0,95,50,66,60
272,GO,1.637326002,1,0,0,0,17335.19012,go_nogo.csv,2,female265W,0.46207424,59.55882353,TRAINING,0,96,50,66,60
273,GO,,0,1,0,0,17917.10008,go_nogo.csv,2,female265W,0.450045155,59.34065934,TRAINING,0,96,51,66,60
274,GO,0.471199036,1,0,0,0,17939.51007,go_nogo.csv,2,female265W,0.456371493,59.48905109,TRAINING,0,97,51,66,60
275,NOGO,0,0,0,0,1,14.79365516,go_nogo.csv,3,female265W,0.446102316,59.27272727,TRAINING,0,97,51,66,61
276,NOGO,,0,0,1,0,46.98366117,go_nogo.csv,3,female265W,0.455451895,59.42028986,TRAINING,0,97,51,67,61
277,NOGO,0.274564981,0,0,0,1,586.973624,go_nogo.csv,3,female265W,0.445348233,59.20577617,TRAINING,0,97,51,67,62
278,GO,0.829375029,1,0,0,0,623.323662,go_nogo.csv,3,female265W,0.451605835,59.35251799,TRAINING,0,98,51,67,62
279,GO,1.421042919,1,0,0,0,822.3536451,go_nogo.csv,3,female265W,0.457796075,59.49820789,TRAINING,0,99,51,67,62
280,NOGO,,0,0,1,0,1025.363652,go_nogo.csv,3,female265W,0.467008265,59.64285714,TRAINING,0,99,51,68,62
281,NOGO,1.424717903,0,0,0,1,1211.563672,go_nogo.csv,3,female265W,0.457064869,59.43060498,TRAINING,0,99,51,68,63
282,NOGO,1.213428974,0,0,0,1,1259.663665,go_nogo.csv,3,female265W,0.44727559,59.21985816,TRAINING,0,99,51,68,64
283,GO,0.192958117,1,0,0,0,1563.203634,go_nogo.csv,3,female265W,0.453399804,59.3639576,TRAINING,0,100,51,68,64
284,GO,,0,1,0,0,1797.303658,go_nogo.csv,3,female265W,0.441618562,59.15492958,TRAINING,0,100,52,68,64
285,GO,0.850123882,1,0,0,0,2835.863642,go_nogo.csv,3,female265W,0.447685911,59.29824561,TRAINING,0,101,52,68,64
286,NOGO,,0,0,1,0,2863.093648,go_nogo.csv,3,female265W,0.456765834,59.44055944,TRAINING,0,101,52,69,64
287,NOGO,,0,0,1,0,2929.393707,go_nogo.csv,3,female265W,0.46571501,59.58188153,TRAINING,0,101,52,70,64
288,NOGO,1.734296083,0,0,0,1,2942.87363,go_nogo.csv,3,female265W,0.456077365,59.375,TRAINING,0,101,52,70,65
289,NOGO,1.675283194,0,0,0,1,2974.463641,go_nogo.csv,3,female265W,0.446584606,59.16955017,TRAINING,0,101,52,70,66
290,NOGO,,0,0,1,0,3261.793676,go_nogo.csv,3,female265W,0.455408872,59.31034483,TRAINING,0,101,52,71,66
291,NOGO,,0,0,1,0,3281.653652,go_nogo.csv,3,female265W,0.46410963,59.45017182,TRAINING,0,101,52,72,66
292,NOGO,,0,0,1,0,3295.543638,go_nogo.csv,3,female265W,0.4726901,59.5890411,TRAINING,0,101,52,73,66
293,GO,0,1,0,0,0,3322.70365,go_nogo.csv,3,female265W,0.478693998,59.72696246,TRAINING,0,102,52,73,66
294,NOGO,,0,0,1,0,3350.453634,go_nogo.csv,3,female265W,0.487157278,59.86394558,TRAINING,0,102,52,74,66
295,GO,,0,1,0,0,3430.583632,go_nogo.csv,3,female265W,0.475598844,59.66101695,TRAINING,0,102,53,74,66
296,GO,0,1,0,0,0,3445.46365,go_nogo.csv,3,female265W,0.481548085,59.7972973,TRAINING,0,103,53,74,66
297,GO,,0,1,0,0,3489.713671,go_nogo.csv,3,female265W,0.470196911,59.5959596,TRAINING,0,103,54,74,66
298,GO,,0,1,0,0,3505.183625,go_nogo.csv,3,female265W,0.459038751,59.39597315,TRAINING,0,103,55,74,66
299,GO,0.51888299,1,0,0,0,3842.84366,go_nogo.csv,3,female265W,0.464941216,59.53177258,TRAINING,0,104,55,74,66
300,GO,1.13252306,1,0,0,0,4154.443645,go_nogo.csv,3,female265W,0.470783854,59.66666667,TRAINING,0,105,55,74,66
301,NOGO,,0,0,1,0,4203.833624,go_nogo.csv,3,female265W,0.479132923,59.80066445,TRAINING,0,105,55,75,66
302,GO,0,1,0,0,0,4239.363654,go_nogo.csv,3,female265W,0.484916849,59.93377483,TRAINING,0,106,55,75,66
303,NOGO,1.728031874,0,0,0,1,4296.783648,go_nogo.csv,3,female265W,0.475570747,59.7359736,TRAINING,0,106,55,75,67
304,NOGO,,0,0,1,0,4331.633656,go_nogo.csv,3,female265W,0.483810135,59.86842105,TRAINING,0,106,55,76,67
305,GO,1.471313,1,0,0,0,4402.653658,go_nogo.csv,3,female265W,0.489536436,60,TRAINING,0,107,55,76,67
306,NOGO,1.911674976,0,0,0,1,4497.003659,go_nogo.csv,3,female265W,0.480327588,59.80392157,TRAINING,0,107,55,76,68
307,NOGO,,0,0,1,0,4524.553634,go_nogo.csv,3,female265W,0.488460135,59.93485342,TRAINING,0,107,55,77,68
308,GO,1.503486872,1,0,0,0,4596.233645,go_nogo.csv,3,female265W,0.494129869,60.06493506,TRAINING,0,108,55,77,68
309,NOGO,,0,0,1,0,5077.883655,go_nogo.csv,3,female265W,0.502156781,60.19417476,TRAINING,0,108,55,78,68
310,GO,0.789160967,1,0,0,0,5094.453632,go_nogo.csv,3,female265W,0.507770978,60.32258065,TRAINING,0,109,55,78,68
311,NOGO,,0,0,1,0,5327.443649,go_nogo.csv,3,female265W,0.515694808,60.45016077,TRAINING,0,109,55,79,68
312,NOGO,1.733449936,0,0,0,1,5355.793648,go_nogo.csv,3,female265W,0.506622434,60.25641026,TRAINING,0,109,55,79,69
313,GO,0.912828922,1,0,0,0,5551.863657,go_nogo.csv,3,female265W,0.512182094,60.38338658,TRAINING,0,110,55,79,69
314,GO,0.143862009,1,0,0,0,5613.373676,go_nogo.csv,3,female265W,0.517688193,60.50955414,TRAINING,0,111,55,79,69
315,NOGO,1.53630209,0,0,0,1,5782.933839,go_nogo.csv,3,female265W,0.508743576,60.31746032,TRAINING,0,111,55,79,70
316,NOGO,,0,0,1,0,5810.743623,go_nogo.csv,3,female265W,0.516570181,60.44303797,TRAINING,0,111,55,80,70
317,NOGO,0.392931938,0,0,0,1,5987.753639,go_nogo.csv,3,female265W,0.507751347,60.25236593,TRAINING,0,111,55,80,71
318,GO,0.282701969,1,0,0,0,6013.733833,go_nogo.csv,3,female265W,0.513204836,60.37735849,TRAINING,0,112,55,80,71
319,NOGO,,0,0,1,0,6061.753631,go_nogo.csv,3,female265W,0.520934987,60.5015674,TRAINING,0,112,55,81,71
320,GO,1.920189857,1,0,0,0,6079.463643,go_nogo.csv,3,female265W,0.52633679,60.625,TRAINING,0,113,55,81,71
321,NOGO,0.411617041,0,0,0,1,6101.793653,go_nogo.csv,3,female265W,0.517640253,60.43613707,TRAINING,0,113,55,81,72
322,NOGO,,0,0,1,0,6172.833636,go_nogo.csv,3,female265W,0.525276296,60.55900621,TRAINING,0,113,55,82,72
323,NOGO,0.003859043,0,0,0,1,6245.913657,go_nogo.csv,3,female265W,0.516698712,60.37151703,TRAINING,0,113,55,82,73
324,GO,,0,1,0,0,6270.793672,go_nogo.csv,3,female265W,0.505794926,60.18518519,TRAINING,0,113,56,82,73
325,GO,,0,1,0,0,6320.953638,go_nogo.csv,3,female265W,0.49506907,60,TRAINING,0,113,57,82,73
326,NOGO,,0,0,1,0,6336.713677,go_nogo.csv,3,female265W,0.502613266,60.12269939,TRAINING,0,113,57,83,73
327,NOGO,,0,0,1,0,6354.543643,go_nogo.csv,3,female265W,0.51006643,60.24464832,TRAINING,0,113,57,84,73
328,NOGO,0.739255905,0,0,0,1,6403.713636,go_nogo.csv,3,female265W,0.501605958,60.06097561,TRAINING,0,113,57,84,74
329,NOGO,,0,0,1,0,6463.083651,go_nogo.csv,3,female265W,0.508971611,60.18237082,TRAINING,0,113,57,85,74
330,GO,0.009895086,1,0,0,0,6695.773653,go_nogo.csv,3,female265W,0.514336075,60.3030303,TRAINING,0,114,57,85,74
331,NOGO,0.183147907,0,0,0,1,6809.963624,go_nogo.csv,3,female265W,0.505988217,60.12084592,TRAINING,0,114,57,85,75
332,GO,0.016093969,1,0,0,0,6851.953653,go_nogo.csv,3,female265W,0.511302797,60.24096386,TRAINING,0,115,57,85,75
333,GO,0.617696047,1,0,0,0,6974.893644,go_nogo.csv,3,female265W,0.516568347,60.36036036,TRAINING,0,116,57,85,75
334,NOGO,0.603518963,0,0,0,1,7444.183623,go_nogo.csv,3,female265W,0.508328878,60.17964072,TRAINING,0,116,57,85,76
335,GO,0.910603046,1,0,0,0,7620.663647,go_nogo.csv,3,female265W,0.513546232,60.29850746,TRAINING,0,117,57,85,76
336,GO,0.137516022,1,0,0,0,7689.903641,go_nogo.csv,3,female265W,0.518716202,60.41666667,TRAINING,0,118,57,85,76
337,NOGO,,0,0,1,0,8037.843647,go_nogo.csv,3,female265W,0.525997641,60.53412463,TRAINING,0,118,57,86,76
338,GO,1.553505898,1,0,0,0,8055.613651,go_nogo.csv,3,female265W,0.531121019,60.65088757,TRAINING,0,119,57,86,76
339,NOGO,0.749410152,0,0,0,1,8118.853628,go_nogo.csv,3,female265W,0.522988412,60.4719764,TRAINING,0,119,57,86,77
340,GO,0,1,0,0,0,8145.943847,go_nogo.csv,3,female265W,0.528065972,60.58823529,TRAINING,0,120,57,86,77
341,NOGO,,0,0,1,0,8185.883672,go_nogo.csv,3,female265W,0.535263843,60.70381232,TRAINING,0,120,57,87,77
342,NOGO,,0,0,1,0,8216.653631,go_nogo.csv,3,female265W,0.542378861,60.81871345,TRAINING,0,120,57,88,77
343,NOGO,,0,0,1,0,8246.693662,go_nogo.csv,3,female265W,0.549412804,60.93294461,TRAINING,0,120,57,89,77
344,GO,1.673111916,1,0,0,0,8261.103657,go_nogo.csv,3,female265W,0.5544453,61.04651163,TRAINING,0,121,57,89,77
345,NOGO,1.987260818,0,0,0,1,8460.623663,go_nogo.csv,3,female265W,0.546419272,60.86956522,TRAINING,0,121,57,89,78
346,GO,0.605099916,1,0,0,0,8489.793663,go_nogo.csv,3,female265W,0.551407441,60.98265896,TRAINING,0,122,57,89,78
347,GO,0.814763069,1,0,0,0,8530.203644,go_nogo.csv,3,female265W,0.556352001,61.09510086,TRAINING,0,123,57,89,78
348,NOGO,,0,0,1,0,8592.133641,go_nogo.csv,3,female265W,0.563307956,61.20689655,TRAINING,0,123,57,90,78
349,NOGO,0,0,0,0,1,8646.123653,go_nogo.csv,3,female265W,0.555383338,61.03151862,TRAINING,0,123,57,90,79
350,GO,1.930662155,1,0,0,0,8671.413653,go_nogo.csv,3,female265W,0.560284991,61.14285714,TRAINING,0,124,57,90,79
351,GO,0.803575993,1,0,0,0,8718.633661,go_nogo.csv,3,female265W,0.565144424,61.25356125,TRAINING,0,125,57,90,79
352,NOGO,,0,0,1,0,9107.853657,go_nogo.csv,3,female265W,0.5720241,61.36363636,TRAINING,0,125,57,91,79
353,NOGO,1.000174999,0,0,0,1,9251.713646,go_nogo.csv,3,female265W,0.564198361,61.1898017,TRAINING,0,125,57,91,80
354,GO,0.020611048,1,0,0,0,9311.353658,go_nogo.csv,3,female265W,0.569016242,61.29943503,TRAINING,0,126,57,91,80
355,GO,,0,1,0,0,9350.823657,go_nogo.csv,3,female265W,0.558545823,61.12676056,TRAINING,0,126,58,91,80
356,NOGO,,0,0,1,0,9381.96366,go_nogo.csv,3,female265W,0.565350872,61.23595506,TRAINING,0,126,58,92,80
357,NOGO,0.402762175,0,0,0,1,9397.03366,go_nogo.csv,3,female265W,0.557621578,61.06442577,TRAINING,0,126,58,92,81
358,GO,0.962585926,1,0,0,0,9425.733653,go_nogo.csv,3,female265W,0.562404989,61.17318436,TRAINING,0,127,58,92,81
359,NOGO,,0,0,1,0,9553.903646,go_nogo.csv,3,female265W,0.569137011,61.28133705,TRAINING,0,127,58,93,81
360,NOGO,0.257887125,0,0,0,1,9658.013696,go_nogo.csv,3,female265W,0.561501816,61.11111111,TRAINING,0,127,58,93,82
361,NOGO,,0,0,1,0,9893.253689,go_nogo.csv,3,female265W,0.56816236,61.21883657,TRAINING,0,127,58,94,82
362,GO,0.923485041,1,0,0,0,9910.823663,go_nogo.csv,3,female265W,0.572905513,61.32596685,TRAINING,0,128,58,94,82
363,GO,0.905183077,1,0,0,0,9937.923634,go_nogo.csv,3,female265W,0.577609032,61.43250689,TRAINING,0,129,58,94,82
364,GO,1.569564819,1,0,0,0,9974.633666,go_nogo.csv,3,female265W,0.582273527,61.53846154,TRAINING,0,130,58,94,82
365,NOGO,0.66617012,0,0,0,1,10123.32368,go_nogo.csv,3,female265W,0.574730168,61.36986301,TRAINING,0,130,58,94,83
366,GO,0,1,0,0,0,10148.12363,go_nogo.csv,3,female265W,0.579356235,61.47540984,TRAINING,0,131,58,94,83
367,NOGO,,0,0,1,0,10177.50367,go_nogo.csv,3,female265W,0.585946801,61.58038147,TRAINING,0,131,58,95,83
368,GO,1.458203077,1,0,0,0,10240.19365,go_nogo.csv,3,female265W,0.590535023,61.68478261,TRAINING,0,132,58,95,83
369,GO,0,1,0,0,0,10268.38363,go_nogo.csv,3,female265W,0.59508597,61.78861789,TRAINING,0,133,58,95,83
370,NOGO,1.82667017,0,0,0,1,10413.24365,go_nogo.csv,3,female265W,0.587632264,61.62162162,TRAINING,0,133,58,95,84
371,NOGO,0.226537943,0,0,0,1,10439.82366,go_nogo.csv,3,female265W,0.580265109,61.45552561,TRAINING,0,133,58,95,85
372,NOGO,,0,0,1,0,10470.36364,go_nogo.csv,3,female265W,0.58678815,61.55913978,TRAINING,0,133,58,96,85
373,NOGO,0,0,0,0,1,10528.10366,go_nogo.csv,3,female265W,0.579506546,61.39410188,TRAINING,0,133,58,96,86
374,GO,0.671687841,1,0,0,0,10556.22364,go_nogo.csv,3,female265W,0.584020775,61.4973262,TRAINING,0,134,58,96,86
375,NOGO,,0,0,1,0,10893.46366,go_nogo.csv,3,female265W,0.590476669,61.6,TRAINING,0,134,58,97,86
376,NOGO,,0,0,1,0,10929.84366,go_nogo.csv,3,female265W,0.596865844,61.70212766,TRAINING,0,134,58,98,86
377,NOGO,0.829214811,0,0,0,1,11480.32368,go_nogo.csv,3,female265W,0.589668764,61.53846154,TRAINING,0,134,58,98,87
378,GO,0.541883945,1,0,0,0,11505.85366,go_nogo.csv,3,female265W,0.594146821,61.64021164,TRAINING,0,135,58,98,87
379,NOGO,,0,0,1,0,11770.57366,go_nogo.csv,3,female265W,0.600471572,61.7414248,TRAINING,0,135,58,99,87
380,GO,,0,1,0,0,12112.05368,go_nogo.csv,3,female265W,0.59022096,61.57894737,TRAINING,0,135,59,99,87
381,GO,0.247284889,1,0,0,0,12144.28365,go_nogo.csv,3,female265W,0.594669579,61.67979003,TRAINING,0,136,59,99,87
382,GO,0.16849184,1,0,0,0,12319.01371,go_nogo.csv,3,female265W,0.599083077,61.78010471,TRAINING,0,137,59,99,87
383,GO,0,1,0,0,0,12359.17368,go_nogo.csv,3,female265W,0.603461966,61.87989556,TRAINING,0,138,59,99,87
384,NOGO,,0,0,1,0,12393.66364,go_nogo.csv,3,female265W,0.609722602,61.97916667,TRAINING,0,138,59,100,87
385,NOGO,1.795175076,0,0,0,1,12859.36367,go_nogo.csv,3,female265W,0.602608157,61.81818182,TRAINING,0,138,59,100,88
386,GO,0.802942991,1,0,0,0,12960.02369,go_nogo.csv,3,female265W,0.606952936,61.91709845,TRAINING,0,139,59,100,88
387,NOGO,,0,0,1,0,13068.78365,go_nogo.csv,3,female265W,0.613151709,62.01550388,TRAINING,0,139,59,101,88
388,NOGO,0.220727921,0,0,0,1,13162.42367,go_nogo.csv,3,female265W,0.606117064,61.8556701,TRAINING,0,139,59,101,89
389,GO,1.351000786,1,0,0,0,13304.72384,go_nogo.csv,3,female265W,0.610428222,61.95372751,TRAINING,0,140,59,101,89
390,GO,1.270262957,1,0,0,0,13583.23365,go_nogo.csv,3,female265W,0.614706238,62.05128205,TRAINING,0,141,59,101,89
391,NOGO,1.774270058,0,0,0,1,13700.37367,go_nogo.csv,3,female265W,0.60774871,61.89258312,TRAINING,0,141,59,101,90
392,GO,0,1,0,0,0,13767.32367,go_nogo.csv,3,female265W,0.611994054,61.98979592,TRAINING,0,142,59,101,90
393,GO,1.238309145,1,0,0,0,13908.93363,go_nogo.csv,3,female265W,0.616207185,62.08651399,TRAINING,0,143,59,101,90
394,GO,0.032851934,1,0,0,0,14668.10367,go_nogo.csv,3,female265W,0.620388553,62.18274112,TRAINING,0,144,59,101,90
395,GO,,0,1,0,0,14858.4637,go_nogo.csv,3,female265W,0.610348887,62.02531646,TRAINING,0,144,60,101,90
396,GO,0.618723154,1,0,0,0,14973.87364,go_nogo.csv,3,female265W,0.614504893,62.12121212,TRAINING,0,145,60,101,90
397,NOGO,,0,0,1,0,15278.99363,go_nogo.csv,3,female265W,0.620643927,62.21662469,TRAINING,0,145,60,102,90
398,NOGO,1.294332981,0,0,0,1,15308.25365,go_nogo.csv,3,female265W,0.613762747,62.06030151,TRAINING,0,145,60,102,91
399,GO,1.674333096,1,0,0,0,15382.51367,go_nogo.csv,3,female265W,0.617887855,62.15538847,TRAINING,0,146,60,102,91
400,NOGO,0.678778887,0,0,0,1,15783.08369,go_nogo.csv,3,female265W,0.611080567,62,TRAINING,0,146,60,102,92
401,NOGO,0.412369013,0,0,0,1,15812.21364,go_nogo.csv,3,female265W,0.604345676,61.84538653,TRAINING,0,146,60,102,93
402,GO,0.036977053,1,0,0,0,15838.55369,go_nogo.csv,3,female265W,0.608440311,61.94029851,TRAINING,0,147,60,102,93
403,GO,0.295912027,1,0,0,0,15879.85368,go_nogo.csv,3,female265W,0.612504886,62.03473945,TRAINING,0,148,60,102,93
404,GO,,0,1,0,0,15899.86367,go_nogo.csv,3,female265W,0.602638987,61.88118812,TRAINING,0,148,61,102,93
405,GO,0.002254963,1,0,0,0,15938.56362,go_nogo.csv,3,female265W,0.606679665,61.97530864,TRAINING,0,149,61,102,93
406,GO,0.481443167,1,0,0,0,16032.88367,go_nogo.csv,3,female265W,0.610691082,62.06896552,TRAINING,0,150,61,102,93
407,NOGO,0.207232952,0,0,0,1,16195.98366,go_nogo.csv,3,female265W,0.604027138,61.91646192,TRAINING,0,150,61,102,94
408,NOGO,1.412899971,0,0,0,1,16226.49364,go_nogo.csv,3,female265W,0.597432733,61.76470588,TRAINING,0,150,61,102,95
409,GO,0.835421085,1,0,0,0,16252.77369,go_nogo.csv,3,female265W,0.601415279,61.85819071,TRAINING,0,151,61,102,95
410,GO,,0,1,0,0,16457.21367,go_nogo.csv,3,female265W,0.591711664,61.70731707,TRAINING,0,151,62,102,95
411,GO,,0,1,0,0,16472.63369,go_nogo.csv,3,female265W,0.582148879,61.55717762,TRAINING,0,151,63,102,95
412,NOGO,,0,0,1,0,16488.62365,go_nogo.csv,3,female265W,0.588231109,61.65048544,TRAINING,0,151,63,103,95
413,GO,0.948152065,1,0,0,0,16546.15365,go_nogo.csv,3,female265W,0.592196141,61.7433414,TRAINING,0,152,63,103,95
414,GO,0.945790052,1,0,0,0,16676.04367,go_nogo.csv,3,female265W,0.596133047,61.83574879,TRAINING,0,153,63,103,95
415,NOGO,,0,0,1,0,17073.15366,go_nogo.csv,3,female265W,0.602156292,61.92771084,TRAINING,0,153,63,104,95
416,NOGO,0.267771959,0,0,0,1,17148.34365,go_nogo.csv,3,female265W,0.595631078,61.77884615,TRAINING,0,153,63,104,96
417,GO,,0,1,0,0,17555.71366,go_nogo.csv,3,female265W,0.586215594,61.63069544,TRAINING,0,153,64,104,96
418,GO,,0,1,0,0,7.725224972,go_nogo.csv,4,female265W,0.57693276,61.48325359,TRAINING,0,153,65,104,96
419,GO,0.417802811,1,0,0,0,237.0652361,go_nogo.csv,4,female265W,0.580852243,61.575179,TRAINING,0,154,65,104,96
420,GO,1.187486887,1,0,0,0,301.615222,go_nogo.csv,4,female265W,0.584744318,61.66666667,TRAINING,0,155,65,104,96
421,NOGO,,0,0,1,0,328.315217,go_nogo.csv,4,female265W,0.590710243,61.75771971,TRAINING,0,155,65,105,96
422,GO,0.174473047,1,0,0,0,352.5152321,go_nogo.csv,4,female265W,0.594575264,61.84834123,TRAINING,0,156,65,105,96
423,NOGO,0.569531918,0,0,0,1,434.8851941,go_nogo.csv,4,female265W,0.588117272,61.70212766,TRAINING,0,156,65,105,97
424,NOGO,1.734528065,0,0,0,1,465.9252241,go_nogo.csv,4,female265W,0.581724625,61.55660377,TRAINING,0,156,65,105,98
425,GO,0.902809858,1,0,0,0,494.085212,go_nogo.csv,4,female265W,0.585562937,61.64705882,TRAINING,0,157,65,105,98
426,GO,0.178874969,1,0,0,0,645.765193,go_nogo.csv,4,female265W,0.589374881,61.7370892,TRAINING,0,158,65,105,98
427,NOGO,1.149276018,0,0,0,1,681.735218,go_nogo.csv,4,female265W,0.583046334,61.59250585,TRAINING,0,158,65,105,99
428,NOGO,1.816907883,0,0,0,1,707.4852231,go_nogo.csv,4,female265W,0.576780678,61.44859813,TRAINING,0,158,65,105,100
429,NOGO,1.635782003,0,0,0,1,734.8251951,go_nogo.csv,4,female265W,0.570576738,61.30536131,TRAINING,0,158,65,105,101
430,NOGO,,0,0,1,0,813.475235,go_nogo.csv,4,female265W,0.576488042,61.39534884,TRAINING,0,158,65,106,101
431,GO,1.544317961,1,0,0,0,888.44522,go_nogo.csv,4,female265W,0.580273952,61.48491879,TRAINING,0,159,65,106,101
432,NOGO,,0,0,1,0,1025.775196,go_nogo.csv,4,female265W,0.586129726,61.57407407,TRAINING,0,159,65,107,101
433,GO,0.461305141,1,0,0,0,1140.435234,go_nogo.csv,4,female265W,0.589889929,61.66281755,TRAINING,0,160,65,107,101
434,GO,0.038067102,1,0,0,0,1548.705349,go_nogo.csv,4,female265W,0.593624747,61.75115207,TRAINING,0,161,65,107,101
435,GO,1.376763105,1,0,0,0,1623.625201,go_nogo.csv,4,female265W,0.597334495,61.83908046,TRAINING,0,162,65,107,101
436,NOGO,0.90960288,0,0,0,1,1673.045227,go_nogo.csv,4,female265W,0.591191661,61.69724771,TRAINING,0,162,65,107,102
437,NOGO,0.56360507,0,0,0,1,1720.115209,go_nogo.csv,4,female265W,0.585108164,61.55606407,TRAINING,0,162,65,107,103
438,GO,1.432173014,1,0,0,0,1745.385218,go_nogo.csv,4,female265W,0.588793153,61.64383562,TRAINING,0,163,65,107,103
439,NOGO,,0,0,1,0,1785.705219,go_nogo.csv,4,female265W,0.594595009,61.73120729,TRAINING,0,163,65,108,103
440,GO,0.196967125,1,0,0,0,1881.955218,go_nogo.csv,4,female265W,0.598255543,61.81818182,TRAINING,0,164,65,108,103
441,NOGO,,0,0,1,0,1910.005206,go_nogo.csv,4,female265W,0.604003903,61.9047619,TRAINING,0,164,65,109,103
442,NOGO,1.242444038,0,0,0,1,1954.115236,go_nogo.csv,4,female265W,0.597979169,61.76470588,TRAINING,0,164,65,109,104
443,GO,0.038538933,1,0,0,0,1983.575202,go_nogo.csv,4,female265W,0.601615547,61.8510158,TRAINING,0,165,65,109,104
444,NOGO,,0,0,1,0,2007.305205,go_nogo.csv,4,female265W,0.607311663,61.93693694,TRAINING,0,165,65,110,104
445,NOGO,1.314418077,0,0,0,1,2124.105238,go_nogo.csv,4,female265W,0.601344292,61.79775281,TRAINING,0,165,65,110,105
446,NOGO,0.909105062,0,0,0,1,2407.025205,go_nogo.csv,4,female265W,0.59543294,61.65919283,TRAINING,0,165,65,110,106
447,GO,1.177644014,1,0,0,0,2434.705195,go_nogo.csv,4,female265W,0.599045456,61.74496644,TRAINING,0,166,65,110,106
448,GO,0.396355867,1,0,0,0,2490.515234,go_nogo.csv,4,female265W,0.602634399,61.83035714,TRAINING,0,167,65,110,106
449,GO,0.630950928,1,0,0,0,2623.435222,go_nogo.csv,4,female265W,0.60620005,61.91536748,TRAINING,0,168,65,110,106
450,GO,0.692826033,1,0,0,0,3399.9952,go_nogo.csv,4,female265W,0.609742691,62,TRAINING,0,169,65,110,106
451,NOGO,,0,0,1,0,3471.175264,go_nogo.csv,4,female265W,0.615387767,62.08425721,TRAINING,0,169,65,111,106
452,NOGO,0.19037509,0,0,0,1,3634.535215,go_nogo.csv,4,female265W,0.609531652,61.94690265,TRAINING,0,169,65,111,107
453,NOGO,0.3991611,0,0,0,1,3661.615191,go_nogo.csv,4,female265W,0.60372955,61.81015453,TRAINING,0,169,65,111,108
454,GO,0.137470007,1,0,0,0,3780.065215,go_nogo.csv,4,female265W,0.607249452,61.89427313,TRAINING,0,170,65,111,108
455,NOGO,,0,0,1,0,3920.915199,go_nogo.csv,4,female265W,0.612844337,61.97802198,TRAINING,0,170,65,112,108
456,GO,0,1,0,0,0,3986.545399,go_nogo.csv,4,female265W,0.616341769,62.06140351,TRAINING,0,171,65,112,108
457,NOGO,,0,0,1,0,4016.905222,go_nogo.csv,4,female265W,0.62188695,62.14442013,TRAINING,0,171,65,113,108
458,NOGO,,0,0,1,0,4307.145231,go_nogo.csv,4,female265W,0.627383255,62.22707424,TRAINING,0,171,65,114,108
459,NOGO,,0,0,1,0,4870.975189,go_nogo.csv,4,female265W,0.63283149,62.30936819,TRAINING,0,171,65,115,108
460,NOGO,,0,0,1,0,4883.74524,go_nogo.csv,4,female265W,0.638232444,62.39130435,TRAINING,0,171,65,116,108
461,NOGO,,0,0,1,0,4905.175217,go_nogo.csv,4,female265W,0.643586885,62.47288503,TRAINING,0,171,65,117,108
462,NOGO,0,0,0,0,1,4926.585189,go_nogo.csv,4,female265W,0.637839438,62.33766234,TRAINING,0,171,65,117,109
463,GO,0.495611191,1,0,0,0,4999.905217,go_nogo.csv,4,female265W,0.641314665,62.41900648,TRAINING,0,172,65,117,109
464,NOGO,1.527697802,0,0,0,1,5032.085243,go_nogo.csv,4,female265W,0.635619075,62.28448276,TRAINING,0,172,65,117,110
465,GO,1.044816971,1,0,0,0,5293.645201,go_nogo.csv,4,female265W,0.639072357,62.3655914,TRAINING,0,173,65,117,110
466,GO,0.067391157,1,0,0,0,5547.605223,go_nogo.csv,4,female265W,0.642503949,62.44635193,TRAINING,0,174,65,117,110
467,NOGO,0.370510101,0,0,0,1,6054.355233,go_nogo.csv,4,female265W,0.636859335,62.31263383,TRAINING,0,174,65,117,111
468,NOGO,,0,0,1,0,6085.735212,go_nogo.csv,4,female265W,0.642169104,62.39316239,TRAINING,0,174,65,118,111
469,GO,,0,1,0,0,6123.115224,go_nogo.csv,4,female265W,0.63311807,62.26012793,TRAINING,0,174,66,118,111
470,NOGO,,0,0,1,0,6290.765201,go_nogo.csv,4,female265W,0.638382928,62.34042553,TRAINING,0,174,66,119,111
471,NOGO,,0,0,1,0,6371.695193,go_nogo.csv,4,female265W,0.643603588,62.42038217,TRAINING,0,174,66,120,111
472,NOGO,1.96519804,0,0,0,1,6425.785216,go_nogo.csv,4,female265W,0.638010006,62.28813559,TRAINING,0,174,66,120,112
473,GO,0.75584507,1,0,0,0,6454.795241,go_nogo.csv,4,female265W,0.641424981,62.36786469,TRAINING,0,175,66,120,112
474,NOGO,1.720770836,0,0,0,1,6512.275218,go_nogo.csv,4,female265W,0.635880538,62.23628692,TRAINING,0,175,66,120,113
475,NOGO,1.398106098,0,0,0,1,6564.17521,go_nogo.csv,4,female265W,0.630384419,62.10526316,TRAINING,0,175,66,120,114
476,NOGO,,0,0,1,0,6592.235199,go_nogo.csv,4,female265W,0.635562585,62.18487395,TRAINING,0,175,66,121,114
477,NOGO,,0,0,1,0,6705.795209,go_nogo.csv,4,female265W,0.640698037,62.26415094,TRAINING,0,175,66,122,114
478,GO,0.510286808,1,0,0,0,6725.465215,go_nogo.csv,4,female265W,0.644091811,62.34309623,TRAINING,0,176,66,122,114
479,NOGO,1.12912178,0,0,0,1,6972.745224,go_nogo.csv,4,female265W,0.638643754,62.21294363,TRAINING,0,176,66,122,115
480,NOGO,,0,0,1,0,7079.215195,go_nogo.csv,4,female265W,0.643737472,62.29166667,TRAINING,0,176,66,123,115
481,GO,0.629050016,1,0,0,0,7671.045211,go_nogo.csv,4,female265W,0.647110288,62.37006237,TRAINING,0,177,66,123,115
482,GO,1.730456114,1,0,0,0,7711.575235,go_nogo.csv,4,female265W,0.650462385,62.44813278,TRAINING,0,178,66,123,115
483,NOGO,,0,0,1,0,7810.275399,go_nogo.csv,4,female265W,0.655514731,62.52587992,TRAINING,0,178,66,124,115
484,GO,,0,1,0,0,7828.895215,go_nogo.csv,4,female265W,0.646605135,62.39669421,TRAINING,0,178,67,124,115
485,NOGO,,0,0,1,0,7842.255205,go_nogo.csv,4,female265W,0.651616737,62.4742268,TRAINING,0,178,67,125,115
486,GO,,0,1,0,0,7857.515194,go_nogo.csv,4,female265W,0.642826057,62.34567901,TRAINING,0,178,68,125,115
487,NOGO,,0,0,1,0,7985.305219,go_nogo.csv,4,female265W,0.647797532,62.42299795,TRAINING,0,178,68,126,115
488,NOGO,,0,0,1,0,8045.985231,go_nogo.csv,4,female265W,0.652729481,62.5,TRAINING,0,178,68,127,115
489,NOGO,,0,0,1,0,8067.225198,go_nogo.csv,4,female265W,0.657622493,62.57668712,TRAINING,0,178,68,128,115
490,GO,0.473531961,1,0,0,0,8091.395215,go_nogo.csv,4,female265W,0.660963325,62.65306122,TRAINING,0,179,68,128,115
491,GO,0.843128204,1,0,0,0,8155.405249,go_nogo.csv,4,female265W,0.664283889,62.72912424,TRAINING,0,180,68,128,115
492,GO,,0,1,0,0,8454.705198,go_nogo.csv,4,female265W,0.655617847,62.60162602,TRAINING,0,180,69,128,115
493,NOGO,,0,0,1,0,8562.225238,go_nogo.csv,4,female265W,0.660472496,62.67748479,TRAINING,0,180,69,129,115
494,GO,1.314332962,1,0,0,0,8691.665211,go_nogo.csv,4,female265W,0.663777441,62.75303644,TRAINING,0,181,69,129,115
495,NOGO,,0,0,1,0,9002.925385,go_nogo.csv,4,female265W,0.668594291,62.82828283,TRAINING,0,181,69,130,115
496,NOGO,0.227267981,0,0,0,1,9016.975233,go_nogo.csv,4,female265W,0.663196059,62.7016129,TRAINING,0,181,69,130,116
497,NOGO,0.185497999,0,0,0,1,9042.225217,go_nogo.csv,4,female265W,0.657843409,62.57545272,TRAINING,0,181,69,130,117
498,GO,,0,1,0,0,9067.265205,go_nogo.csv,4,female265W,0.649294209,62.4497992,TRAINING,0,181,70,130,117
499,GO,1.255182981,1,0,0,0,9081.835213,go_nogo.csv,4,female265W,0.652583638,62.5250501,TRAINING,0,182,70,130,117
500,GO,,0,1,0,0,9238.655223,go_nogo.csv,4,female265W,0.644148167,62.4,TRAINING,0,182,71,130,117
501,GO,1.507509947,1,0,0,0,9253.225194,go_nogo.csv,4,female265W,0.647422181,62.4750499,TRAINING,0,183,71,130,117
502,GO,0.152052879,1,0,0,0,9283.655232,go_nogo.csv,4,female265W,0.650676791,62.5498008,TRAINING,0,184,71,130,117
503,NOGO,,0,0,1,0,9346.27521,go_nogo.csv,4,female265W,0.655457423,62.62425447,TRAINING,0,184,71,131,117
504,NOGO,0.257481098,0,0,0,1,9393.565233,go_nogo.csv,4,female265W,0.65015008,62.5,TRAINING,0,184,71,131,118
505,NOGO,1.496396065,0,0,0,1,9418.805236,go_nogo.csv,4,female265W,0.644886841,62.37623762,TRAINING,0,184,71,131,119
506,GO,,0,1,0,0,9456.135205,go_nogo.csv,4,female265W,0.636566201,62.25296443,TRAINING,0,184,72,131,119
507,NOGO,0.344138861,0,0,0,1,9471.885216,go_nogo.csv,4,female265W,0.631346375,62.13017751,TRAINING,0,184,72,131,120
508,NOGO,1.921851873,0,0,0,1,9498.865233,go_nogo.csv,4,female265W,0.626169286,62.00787402,TRAINING,0,184,72,131,121
509,GO,0.187067032,1,0,0,0,9527.975199,go_nogo.csv,4,female265W,0.629408791,62.08251473,TRAINING,0,185,72,131,121
510,NOGO,,0,0,1,0,9606.515189,go_nogo.csv,4,female265W,0.634154466,62.15686275,TRAINING,0,185,72,132,121
511,GO,1.214534044,1,0,0,0,9628.055212,go_nogo.csv,4,female265W,0.637374981,62.23091977,TRAINING,0,186,72,132,121
512,GO,1.326601982,1,0,0,0,9694.855217,go_nogo.csv,4,female265W,0.640576711,62.3046875,TRAINING,0,187,72,132,121
513,NOGO,,0,0,1,0,9832.305196,go_nogo.csv,4,female265W,0.645286374,62.37816764,TRAINING,0,187,72,133,121
514,GO,0.53062892,1,0,0,0,10011.55521,go_nogo.csv,4,female265W,0.648469523,62.45136187,TRAINING,0,188,72,133,121
515,NOGO,,0,0,1,0,10205.05521,go_nogo.csv,4,female265W,0.653143685,62.52427184,TRAINING,0,188,72,134,121
516,NOGO,0.611595869,0,0,0,1,10972.3652,go_nogo.csv,4,female265W,0.648009744,62.40310078,TRAINING,0,188,72,134,122
517,NOGO,1.154251099,0,0,0,1,11004.18524,go_nogo.csv,4,female265W,0.642917127,62.28239845,TRAINING,0,188,72,134,123
518,GO,1.058377028,1,0,0,0,11033.2752,go_nogo.csv,4,female265W,0.646081892,62.35521236,TRAINING,0,189,72,134,123
519,NOGO,0.821711063,0,0,0,1,11186.11519,go_nogo.csv,4,female265W,0.641029971,62.23506744,TRAINING,0,189,72,134,124
520,GO,0.410804987,1,0,0,0,11219.5352,go_nogo.csv,4,female265W,0.644176548,62.30769231,TRAINING,0,190,72,134,124
521,GO,0.00269413,1,0,0,0,11305.60521,go_nogo.csv,4,female265W,0.647305131,62.38003839,TRAINING,0,191,72,134,124
522,GO,1.237118959,1,0,0,0,11647.78518,go_nogo.csv,4,female265W,0.650415907,62.45210728,TRAINING,0,192,72,134,124
523,NOGO,,0,0,1,0,11680.34523,go_nogo.csv,4,female265W,0.6550562,62.52390057,TRAINING,0,192,72,135,124
524,GO,0.238219976,1,0,0,0,11695.0752,go_nogo.csv,4,female265W,0.658149358,62.59541985,TRAINING,0,193,72,135,124
525,GO,0,1,0,0,0,11738.84519,go_nogo.csv,4,female265W,0.661225082,62.66666667,TRAINING,0,194,72,135,124
526,NOGO,,0,0,1,0,11768.23523,go_nogo.csv,4,female265W,0.665830946,62.73764259,TRAINING,0,194,72,136,124
527,NOGO,,0,0,1,0,11802.89521,go_nogo.csv,4,female265W,0.67040286,62.80834915,TRAINING,0,194,72,137,124
528,GO,,0,1,0,0,11829.82519,go_nogo.csv,4,female265W,0.662225638,62.68939394,TRAINING,0,194,73,137,124
529,GO,0.449425936,1,0,0,0,11848.96524,go_nogo.csv,4,female265W,0.665288041,62.75992439,TRAINING,0,195,73,137,124
530,GO,1.265981913,1,0,0,0,11871.0952,go_nogo.csv,4,female265W,0.668333363,62.83018868,TRAINING,0,196,73,137,124
531,NOGO,,0,0,1,0,11995.6454,go_nogo.csv,4,female265W,0.672871796,62.90018832,TRAINING,0,196,73,138,124
532,GO,1.636593103,1,0,0,0,12016.92521,go_nogo.csv,4,female265W,0.675900212,62.96992481,TRAINING,0,197,73,138,124
533,GO,,0,1,0,0,12110.75522,go_nogo.csv,4,female265W,0.667834781,62.85178236,TRAINING,0,197,74,138,124
534,NOGO,,0,0,1,0,12141.9652,go_nogo.csv,4,female265W,0.672340191,62.92134831,TRAINING,0,197,74,139,124
535,NOGO,0.300477982,0,0,0,1,12157.45521,go_nogo.csv,4,female265W,0.667330146,62.80373832,TRAINING,0,197,74,139,125
536,GO,0.555154085,1,0,0,0,12191.56521,go_nogo.csv,4,female265W,0.670345655,62.87313433,TRAINING,0,198,74,139,125
537,GO,,0,1,0,0,12232.6752,go_nogo.csv,4,female265W,0.662381538,62.75605214,TRAINING,0,198,75,139,125
538,GO,0.085026979,1,0,0,0,12249.77525,go_nogo.csv,4,female265W,0.665384212,62.82527881,TRAINING,0,199,75,139,125
539,GO,0.483862877,1,0,0,0,12414.83523,go_nogo.csv,4,female265W,0.66837048,62.89424861,TRAINING,0,200,75,139,125
540,NOGO,1.603932142,0,0,0,1,12494.27521,go_nogo.csv,4,female265W,0.663399749,62.77777778,TRAINING,0,200,75,139,126
541,GO,0.388856888,1,0,0,0,12583.29522,go_nogo.csv,4,female265W,0.666369777,62.84658041,TRAINING,0,201,75,139,126
542,GO,1.31624198,1,0,0,0,12959.5352,go_nogo.csv,4,female265W,0.669323727,62.91512915,TRAINING,0,202,75,139,126
543,NOGO,0.901663065,0,0,0,1,13259.5452,go_nogo.csv,4,female265W,0.664391727,62.79926335,TRAINING,0,202,75,139,127
544,GO,0.853837967,1,0,0,0,13284.91521,go_nogo.csv,4,female265W,0.66732976,62.86764706,TRAINING,0,203,75,139,127
545,GO,,0,1,0,0,13338.8852,go_nogo.csv,4,female265W,0.659478984,62.75229358,TRAINING,0,203,76,139,127
546,GO,1.495530844,1,0,0,0,13356.24539,go_nogo.csv,4,female265W,0.66240488,62.82051282,TRAINING,0,204,76,139,127
547,NOGO,1.519837856,0,0,0,1,13611.56522,go_nogo.csv,4,female265W,0.657511042,62.70566728,TRAINING,0,204,76,139,128
548,GO,0.849082947,1,0,0,0,13638.27523,go_nogo.csv,4,female265W,0.66042133,62.77372263,TRAINING,0,205,76,139,128
549,NOGO,,0,0,1,0,13742.0152,go_nogo.csv,4,female265W,0.664895707,62.84153005,TRAINING,0,205,76,140,128
550,GO,,0,1,0,0,13756.99522,go_nogo.csv,4,female265W,0.657144497,62.72727273,TRAINING,0,205,77,140,128
551,NOGO,,0,0,1,0,13822.35522,go_nogo.csv,4,female265W,0.661586838,62.79491833,TRAINING,0,205,77,141,128
552,GO,,0,1,0,0,13856.8252,go_nogo.csv,4,female265W,0.653925791,62.68115942,TRAINING,0,205,78,141,128
553,NOGO,,0,0,1,0,13889.86523,go_nogo.csv,4,female265W,0.658336525,62.74864376,TRAINING,0,205,78,142,128
554,NOGO,,0,0,1,0,13903.87522,go_nogo.csv,4,female265W,0.662716075,62.81588448,TRAINING,0,205,78,143,128
555,NOGO,,0,0,1,0,13918.93522,go_nogo.csv,4,female265W,0.667064853,62.88288288,TRAINING,0,205,78,144,128
556,GO,0,1,0,0,0,13934.26519,go_nogo.csv,4,female265W,0.669966675,62.94964029,TRAINING,0,206,78,144,128
557,NOGO,,0,0,1,0,13993.90523,go_nogo.csv,4,female265W,0.674285085,63.01615799,TRAINING,0,206,78,145,128
558,GO,0.359607935,1,0,0,0,14017.99521,go_nogo.csv,4,female265W,0.677171593,63.08243728,TRAINING,0,207,78,145,128
559,NOGO,1.810178995,0,0,0,1,14519.28539,go_nogo.csv,4,female265W,0.672317535,62.96958855,TRAINING,0,207,78,145,129
560,NOGO,1.362533092,0,0,0,1,14568.53524,go_nogo.csv,4,female265W,0.667500352,62.85714286,TRAINING,0,207,78,145,130
561,GO,,0,1,0,0,14596.04519,go_nogo.csv,4,female265W,0.659934141,62.74509804,TRAINING,0,207,79,145,130
562,GO,,0,1,0,0,14614.37524,go_nogo.csv,4,female265W,0.652453852,62.63345196,TRAINING,0,207,80,145,130
563,GO,1.756471157,1,0,0,0,14627.9352,go_nogo.csv,4,female265W,0.655331868,62.69982238,TRAINING,0,208,80,145,130
564,NOGO,,0,0,1,0,14735.69521,go_nogo.csv,4,female265W,0.659621158,62.76595745,TRAINING,0,208,80,146,130
565,GO,,0,1,0,0,14759.5852,go_nogo.csv,4,female265W,0.652228081,62.65486726,TRAINING,0,208,81,146,130
566,GO,0.878550053,1,0,0,0,14785.2252,go_nogo.csv,4,female265W,0.655094295,62.72084806,TRAINING,0,209,81,146,130
567,GO,0.607414007,1,0,0,0,14880.23538,go_nogo.csv,4,female265W,0.657945623,62.78659612,TRAINING,0,210,81,146,130
568,GO,,0,1,0,0,14962.5952,go_nogo.csv,4,female265W,0.650640899,62.67605634,TRAINING,0,210,82,146,130
569,GO,,0,1,0,0,14992.94521,go_nogo.csv,4,female265W,0.643416278,62.5659051,TRAINING,0,210,83,146,130
570,GO,1.302096128,1,0,0,0,15069.55519,go_nogo.csv,4,female265W,0.646259095,62.63157895,TRAINING,0,211,83,146,130
571,NOGO,,0,0,1,0,15161.37521,go_nogo.csv,4,female265W,0.650518846,62.69702277,TRAINING,0,211,83,147,130
572,NOGO,0.27797699,0,0,0,1,15182.31523,go_nogo.csv,4,female265W,0.64573879,62.58741259,TRAINING,0,211,83,147,131
573,NOGO,0.012607098,0,0,0,1,15209.61522,go_nogo.csv,4,female265W,0.640994503,62.47818499,TRAINING,0,211,83,147,132
574,GO,0.930315971,1,0,0,0,15237.29519,go_nogo.csv,4,female265W,0.643822709,62.54355401,TRAINING,0,212,83,147,132
575,GO,1.483742952,1,0,0,0,16031.36521,go_nogo.csv,4,female265W,0.646636444,62.60869565,TRAINING,0,213,83,147,132
576,NOGO,0.209852934,0,0,0,1,16077.2852,go_nogo.csv,4,female265W,0.64192742,62.5,TRAINING,0,213,83,147,133
577,GO,0.172508001,1,0,0,0,16131.38522,go_nogo.csv,4,female265W,0.644726819,62.56499133,TRAINING,0,214,83,147,133
578,NOGO,,0,0,1,0,16424.14521,go_nogo.csv,4,female265W,0.648958591,62.62975779,TRAINING,0,214,83,148,133
579,NOGO,1.298629045,0,0,0,1,16447.74522,go_nogo.csv,4,female265W,0.644284672,62.52158895,TRAINING,0,214,83,148,134
580,NOGO,1.421212196,0,0,0,1,16474.15523,go_nogo.csv,4,female265W,0.639645008,62.4137931,TRAINING,0,214,83,148,135
581,GO,0.964817047,1,0,0,0,16500.92521,go_nogo.csv,4,female265W,0.642430207,62.47848537,TRAINING,0,215,83,148,135
582,GO,1.548832893,1,0,0,0,16568.37519,go_nogo.csv,4,female265W,0.645201337,62.54295533,TRAINING,0,216,83,148,135
583,GO,0.892202139,1,0,0,0,16619.89522,go_nogo.csv,4,female265W,0.647958532,62.60720412,TRAINING,0,217,83,148,135
584,NOGO,0.400785923,0,0,0,1,16664.03522,go_nogo.csv,4,female265W,0.64335265,62.5,TRAINING,0,217,83,148,136
585,NOGO,,0,0,1,0,16691.2352,go_nogo.csv,4,female265W,0.647556686,62.56410256,TRAINING,0,217,83,149,136
586,GO,0.697382927,1,0,0,0,16705.77544,go_nogo.csv,4,female265W,0.650300072,62.62798635,TRAINING,0,218,83,149,136
587,GO,0.731040955,1,0,0,0,16739.32521,go_nogo.csv,4,female265W,0.653029779,62.69165247,TRAINING,0,219,83,149,136
588,NOGO,0.953097105,0,0,0,1,16884.3552,go_nogo.csv,4,female265W,0.648457491,62.58503401,TRAINING,0,219,83,149,137
589,GO,0.302173138,1,0,0,0,16909.64521,go_nogo.csv,4,female265W,0.651173644,62.64855688,TRAINING,0,220,83,149,137
590,NOGO,1.906448126,0,0,0,1,16969.19521,go_nogo.csv,4,female265W,0.646634192,62.54237288,TRAINING,0,220,83,149,138
591,GO,0.019585848,1,0,0,0,16995.2552,go_nogo.csv,4,female265W,0.649336915,62.60575296,TRAINING,0,221,83,149,138
592,NOGO,,0,0,1,0,17025.24522,go_nogo.csv,4,female265W,0.653513218,62.66891892,TRAINING,0,221,83,150,138
593,GO,0.878726959,1,0,0,0,17079.29521,go_nogo.csv,4,female265W,0.656202633,62.73187184,TRAINING,0,222,83,150,138
594,NOGO,,0,0,1,0,17114.61519,go_nogo.csv,4,female265W,0.660351033,62.79461279,TRAINING,0,222,83,151,138
595,GO,0.543100119,1,0,0,0,17138.24522,go_nogo.csv,4,female265W,0.663027262,62.85714286,TRAINING,0,223,83,151,138
596,GO,1.660665035,1,0,0,0,17210.8652,go_nogo.csv,4,female265W,0.665690424,62.91946309,TRAINING,0,224,83,151,138
597,NOGO,,0,0,1,0,17249.67519,go_nogo.csv,4,female265W,0.66981127,62.98157454,TRAINING,0,224,83,152,138
598,GO,0.045982838,1,0,0,0,17274.37521,go_nogo.csv,4,female265W,0.672461482,63.04347826,TRAINING,0,225,83,152,138
599,NOGO,,0,0,1,0,17474.41523,go_nogo.csv,4,female265W,0.676555118,63.10517529,TRAINING,0,225,83,153,138
600,GO,0,1,0,0,0,17490.56521,go_nogo.csv,4,female265W,0.679192496,63.16666667,TRAINING,0,226,83,153,138
601,GO,1.142978907,1,0,0,0,17521.25519,go_nogo.csv,4,female265W,0.681817156,63.22795341,TRAINING,0,227,83,153,138
602,GO,0.400997162,1,0,0,0,17735.46523,go_nogo.csv,4,female265W,0.68442921,63.28903654,TRAINING,0,228,83,153,138
603,NOGO,,0,0,1,0,17776.2352,go_nogo.csv,4,female265W,0.688495971,63.34991708,TRAINING,0,228,83,154,138
604,NOGO,,0,0,1,0,17790.14518,go_nogo.csv,4,female265W,0.692536189,63.41059603,TRAINING,0,228,83,155,138
605,GO,0,1,0,0,0,17806.30522,go_nogo.csv,4,female265W,0.695135749,63.47107438,TRAINING,0,229,83,155,138
606,GO,0.555961847,1,0,0,0,17830.33519,go_nogo.csv,4,female265W,0.697722925,63.53135314,TRAINING,0,230,83,155,138
607,GO,0.049129009,1,0,0,0,17862.17518,go_nogo.csv,4,female265W,0.700297827,63.59143328,TRAINING,0,231,83,155,138
608,GO,0.974323988,1,0,0,0,17904.82521,go_nogo.csv,4,female265W,0.702860561,63.65131579,TRAINING,0,232,83,155,138
609,NOGO,,0,0,1,0,17949.46519,go_nogo.csv,4,female265W,0.706874559,63.71100164,TRAINING,0,232,83,156,138
610,NOGO,1.329613924,0,0,0,1,17993.08519,go_nogo.csv,4,female265W,0.702369614,63.60655738,TRAINING,0,232,83,156,139
611,NOGO,,0,0,1,0,11.57215095,go_nogo.csv,5,female265W,0.706358086,63.66612111,TRAINING,0,232,83,157,139
612,GO,0.007756948,1,0,0,0,44.67213798,go_nogo.csv,5,female265W,0.708908758,63.7254902,TRAINING,0,233,83,157,139
613,GO,1.894168139,1,0,0,0,82.80206299,go_nogo.csv,5,female265W,0.711447474,63.78466558,TRAINING,0,234,83,157,139
614,NOGO,,0,0,1,0,125.7221489,go_nogo.csv,5,female265W,0.715410376,63.84364821,TRAINING,0,234,83,158,139
615,GO,0.213185072,1,0,0,0,172.1221199,go_nogo.csv,5,female265W,0.717937238,63.90243902,TRAINING,0,235,83,158,139
616,GO,,0,1,0,0,463.632112,go_nogo.csv,5,female265W,0.710865333,63.7987013,TRAINING,0,235,84,158,139
617,GO,0.242719889,1,0,0,0,478.0921021,go_nogo.csv,5,female265W,0.713383365,63.85737439,TRAINING,0,236,84,158,139
618,NOGO,0.354852915,0,0,0,1,684.642097,go_nogo.csv,5,female265W,0.708910919,63.75404531,TRAINING,0,236,84,158,140
619,NOGO,0.71104002,0,0,0,1,712.6321158,go_nogo.csv,5,female265W,0.704469786,63.65105008,TRAINING,0,236,84,158,141
620,NOGO,,0,0,1,0,738.2021329,go_nogo.csv,5,female265W,0.708408166,63.70967742,TRAINING,0,236,84,159,141
621,NOGO,,0,0,1,0,780.442081,go_nogo.csv,5,female265W,0.712321617,63.76811594,TRAINING,0,236,84,160,141
622,NOGO,,0,0,1,0,796.1020839,go_nogo.csv,5,female265W,0.716210433,63.82636656,TRAINING,0,236,84,161,141
623,GO,0.909667969,1,0,0,0,881.3920898,go_nogo.csv,5,female265W,0.71871681,63.88443018,TRAINING,0,237,84,161,141
624,GO,0.882002115,1,0,0,0,1141.802128,go_nogo.csv,5,female265W,0.721211631,63.94230769,TRAINING,0,238,84,161,141
625,GO,,0,1,0,0,1260.522112,go_nogo.csv,5,female265W,0.714223487,63.84,TRAINING,0,238,85,161,141
626,GO,0.31283617,1,0,0,0,1279.192125,go_nogo.csv,5,female265W,0.716709702,63.89776358,TRAINING,0,239,85,161,141
627,GO,,0,1,0,0,1331.68208,go_nogo.csv,5,female265W,0.709797777,63.79585327,TRAINING,0,239,86,161,141
628,GO,1.383842945,1,0,0,0,1597.12208,go_nogo.csv,5,female265W,0.712275421,63.85350318,TRAINING,0,240,86,161,141
629,GO,1.00137496,1,0,0,0,1688.582132,go_nogo.csv,5,female265W,0.714741791,63.91096979,TRAINING,0,241,86,161,141
630,NOGO,,0,0,1,0,1719.162082,go_nogo.csv,5,female265W,0.718606264,63.96825397,TRAINING,0,241,86,162,141
631,GO,1.539983988,1,0,0,0,1733.632082,go_nogo.csv,5,female265W,0.721061456,64.02535658,TRAINING,0,242,86,162,141
632,NOGO,1.562294006,0,0,0,1,1875.522093,go_nogo.csv,5,female265W,0.71665266,63.92405063,TRAINING,0,242,86,162,142
633,NOGO,1.824053049,0,0,0,1,1909.932107,go_nogo.csv,5,female265W,0.712274262,63.82306477,TRAINING,0,242,86,162,143
634,NOGO,,0,0,1,0,1937.562063,go_nogo.csv,5,female265W,0.716115452,63.88012618,TRAINING,0,242,86,163,143
635,NOGO,1.171428919,0,0,0,1,1951.762099,go_nogo.csv,5,female265W,0.711767411,63.77952756,TRAINING,0,242,86,163,144
636,NOGO,,0,0,1,0,1977.462081,go_nogo.csv,5,female265W,0.715585222,63.83647799,TRAINING,0,242,86,164,144
637,GO,1.074568987,1,0,0,0,1994.952084,go_nogo.csv,5,female265W,0.718029329,63.89324961,TRAINING,0,243,86,164,144
638,GO,,0,1,0,0,2470.602093,go_nogo.csv,5,female265W,0.711200169,63.79310345,TRAINING,0,243,87,164,144
639,NOGO,0,0,0,0,1,2522.642131,go_nogo.csv,5,female265W,0.706882066,63.69327074,TRAINING,0,243,87,164,145
640,NOGO,,0,0,1,0,2561.31208,go_nogo.csv,5,female265W,0.71067678,63.75,TRAINING,0,243,87,165,145
641,GO,0.82089591,1,0,0,0,2622.192132,go_nogo.csv,5,female265W,0.71311262,63.80655226,TRAINING,0,244,87,165,145
642,GO,1.073987961,1,0,0,0,3143.312081,go_nogo.csv,5,female265W,0.715537554,63.86292835,TRAINING,0,245,87,165,145
643,NOGO,,0,0,1,0,3281.862102,go_nogo.csv,5,female265W,0.719309094,63.91912908,TRAINING,0,245,87,166,145
644,GO,0.010448933,1,0,0,0,3365.752106,go_nogo.csv,5,female265W,0.721723212,63.97515528,TRAINING,0,246,87,166,145
645,NOGO,,0,0,1,0,3394.212068,go_nogo.csv,5,female265W,0.725471844,64.03100775,TRAINING,0,246,87,167,145
646,NOGO,1.350507975,0,0,0,1,3437.942085,go_nogo.csv,5,female265W,0.721183995,63.93188854,TRAINING,0,246,87,167,146
647,GO,0.664556026,1,0,0,0,3467.402094,go_nogo.csv,5,female265W,0.723587387,63.98763524,TRAINING,0,247,87,167,146
648,NOGO,,0,0,1,0,3516.392069,go_nogo.csv,5,female265W,0.727313753,64.04320988,TRAINING,0,247,87,168,146
649,NOGO,0.820829868,0,0,0,1,3530.962081,go_nogo.csv,5,female265W,0.723055019,63.94453005,TRAINING,0,247,87,168,147
650,GO,1.036315918,1,0,0,0,3557.542091,go_nogo.csv,5,female265W,0.725447773,64,TRAINING,0,248,87,168,147
651,GO,0.905008793,1,0,0,0,3672.992079,go_nogo.csv,5,female265W,0.727829976,64.05529954,TRAINING,0,249,87,168,147
652,NOGO,,0,0,1,0,3717.142099,go_nogo.csv,5,female265W,0.731534339,64.11042945,TRAINING,0,249,87,169,147
653,NOGO,,0,0,1,0,3731.492084,go_nogo.csv,5,female265W,0.735216588,64.16539051,TRAINING,0,249,87,170,147
654,NOGO,,0,0,1,0,3797.272083,go_nogo.csv,5,female265W,0.738876971,64.22018349,TRAINING,0,249,87,171,147
655,GO,0.803925037,1,0,0,0,3814.492059,go_nogo.csv,5,female265W,0.741248708,64.27480916,TRAINING,0,250,87,171,147
656,GO,0.342814922,1,0,0,0,3889.612084,go_nogo.csv,5,female265W,0.743610065,64.32926829,TRAINING,0,251,87,171,147
657,NOGO,,0,0,1,0,3925.392084,go_nogo.csv,5,female265W,0.747248824,64.38356164,TRAINING,0,251,87,172,147
658,NOGO,,0,0,1,0,3939.332086,go_nogo.csv,5,female265W,0.750866198,64.43768997,TRAINING,0,251,87,173,147
659,GO,0.478980064,1,0,0,0,3952.722118,go_nogo.csv,5,female265W,0.753217258,64.49165402,TRAINING,0,252,87,173,147
660,NOGO,0.752872944,0,0,0,1,4046.542089,go_nogo.csv,5,female265W,0.748988801,64.39393939,TRAINING,0,252,87,173,148
661,GO,0.718762159,1,0,0,0,4083.462085,go_nogo.csv,5,female265W,0.751329646,64.44780635,TRAINING,0,253,87,173,148
662,GO,0.083980083,1,0,0,0,4389.122092,go_nogo.csv,5,female265W,0.753660359,64.50151057,TRAINING,0,254,87,173,148
663,GO,,0,1,0,0,4506.742092,go_nogo.csv,5,female265W,0.746930522,64.40422323,TRAINING,0,254,88,173,148
664,GO,0.000838995,1,0,0,0,4525.052065,go_nogo.csv,5,female265W,0.749253813,64.45783133,TRAINING,0,255,88,173,148
665,NOGO,,0,0,1,0,4536.55211,go_nogo.csv,5,female265W,0.752850459,64.5112782,TRAINING,0,255,88,174,148
666,NOGO,,0,0,1,0,4565.712082,go_nogo.csv,5,female265W,0.756426199,64.56456456,TRAINING,0,255,88,175,148
667,NOGO,1.434596062,0,0,0,1,4580.232091,go_nogo.csv,5,female265W,0.752226464,64.46776612,TRAINING,0,255,88,175,149
668,NOGO,,0,0,1,0,4606.062089,go_nogo.csv,5,female265W,0.75578195,64.52095808,TRAINING,0,255,88,176,149
669,GO,1.656327009,1,0,0,0,4705.942079,go_nogo.csv,5,female265W,0.758095265,64.57399103,TRAINING,0,256,88,176,149
670,GO,0.359708071,1,0,0,0,4781.212082,go_nogo.csv,5,female265W,0.760398685,64.62686567,TRAINING,0,257,88,176,149
671,NOGO,0.000215054,0,0,0,1,4802.0521,go_nogo.csv,5,female265W,0.756226875,64.53055142,TRAINING,0,257,88,176,150
672,NOGO,0.79918313,0,0,0,1,4830.40207,go_nogo.csv,5,female265W,0.752082223,64.43452381,TRAINING,0,257,88,176,151
673,NOGO,,0,0,1,0,4891.492061,go_nogo.csv,5,female265W,0.755618081,64.48736999,TRAINING,0,257,88,177,151
674,NOGO,,0,0,1,0,5008.732085,go_nogo.csv,5,female265W,0.759133739,64.54005935,TRAINING,0,257,88,178,151
675,GO,0.285156012,1,0,0,0,5023.562074,go_nogo.csv,5,female265W,0.76142734,64.59259259,TRAINING,0,258,88,178,151
676,GO,0.744196892,1,0,0,0,5049.632066,go_nogo.csv,5,female265W,0.7637112,64.64497041,TRAINING,0,259,88,178,151
677,GO,0.339066982,1,0,0,0,5229.052087,go_nogo.csv,5,female265W,0.765985395,64.6971935,TRAINING,0,260,88,178,151
678,NOGO,,0,0,1,0,5295.602071,go_nogo.csv,5,female265W,0.769481069,64.74926254,TRAINING,0,260,88,179,151
679,NOGO,1.06336689,0,0,0,1,5312.552085,go_nogo.csv,5,female265W,0.765364413,64.6539028,TRAINING,0,260,88,179,152
680,GO,0,1,0,0,0,5365.862078,go_nogo.csv,5,female265W,0.767629018,64.70588235,TRAINING,0,261,88,179,152
681,NOGO,1.348320961,0,0,0,1,5440.972076,go_nogo.csv,5,female265W,0.763538801,64.61086637,TRAINING,0,261,88,179,153
682,NOGO,,0,0,1,0,5467.432071,go_nogo.csv,5,female265W,0.767015512,64.6627566,TRAINING,0,261,88,180,153
683,NOGO,0.11540103,0,0,0,1,5482.792101,go_nogo.csv,5,female265W,0.762951788,64.56808199,TRAINING,0,261,88,180,154
684,NOGO,0.224492073,0,0,0,1,5509.432082,go_nogo.csv,5,female265W,0.758913847,64.47368421,TRAINING,0,261,88,180,155
685,GO,1.028646946,1,0,0,0,5548.942082,go_nogo.csv,5,female265W,0.761168939,64.52554745,TRAINING,0,262,88,180,155
686,GO,0.705744028,1,0,0,0,5659.522094,go_nogo.csv,5,female265W,0.763414589,64.57725948,TRAINING,0,263,88,180,155
687,GO,,0,1,0,0,5758.012066,go_nogo.csv,5,female265W,0.756776008,64.48326055,TRAINING,0,263,89,180,155
688,NOGO,,0,0,1,0,5778.902056,go_nogo.csv,5,female265W,0.760233936,64.53488372,TRAINING,0,263,89,181,155
689,NOGO,,0,0,1,0,5815.05208,go_nogo.csv,5,female265W,0.763672551,64.58635704,TRAINING,0,263,89,182,155
690,NOGO,,0,0,1,0,5829.692083,go_nogo.csv,5,female265W,0.767092055,64.63768116,TRAINING,0,263,89,183,155
691,NOGO,,0,0,1,0,5842.952064,go_nogo.csv,5,female265W,0.770492646,64.68885673,TRAINING,0,263,89,184,155
692,GO,0,1,0,0,0,5893.972087,go_nogo.csv,5,female265W,0.772731474,64.73988439,TRAINING,0,264,89,184,155
693,NOGO,,0,0,1,0,5937.832092,go_nogo.csv,5,female265W,0.776113349,64.79076479,TRAINING,0,264,89,185,155
694,NOGO,,0,0,1,0,5962.442098,go_nogo.csv,5,female265W,0.7794767,64.84149856,TRAINING,0,264,89,186,155
695,GO,1.083651066,1,0,0,0,6008.292083,go_nogo.csv,5,female265W,0.781706228,64.89208633,TRAINING,0,265,89,186,155
696,GO,1.469799995,1,0,0,0,6069.452082,go_nogo.csv,5,female265W,0.783926527,64.94252874,TRAINING,0,266,89,186,155
697,NOGO,,0,0,1,0,6136.792075,go_nogo.csv,5,female265W,0.787271543,64.9928264,TRAINING,0,266,89,187,155
698,NOGO,,0,0,1,0,6206.192082,go_nogo.csv,5,female265W,0.790598412,65.04297994,TRAINING,0,266,89,188,155
699,NOGO,,0,0,1,0,6235.942141,go_nogo.csv,5,female265W,0.793907317,65.09298999,TRAINING,0,266,89,189,155
700,GO,0.339727879,1,0,0,0,6293.972106,go_nogo.csv,5,female265W,0.796118459,65.14285714,TRAINING,0,267,89,189,155
701,NOGO,1.144479036,0,0,0,1,6505.062096,go_nogo.csv,5,female265W,0.792109542,65.04992867,TRAINING,0,267,89,189,156
702,NOGO,1.618695021,0,0,0,1,6531.212098,go_nogo.csv,5,female265W,0.788125639,64.95726496,TRAINING,0,267,89,189,157
703,NOGO,,0,0,1,0,6575.752066,go_nogo.csv,5,female265W,0.791417634,65.00711238,TRAINING,0,267,89,190,157
704,NOGO,1.108544827,0,0,0,1,6593.572089,go_nogo.csv,5,female265W,0.78745886,64.91477273,TRAINING,0,267,89,190,158
705,GO,0.770351887,1,0,0,0,6658.39209,go_nogo.csv,5,female265W,0.789660913,64.96453901,TRAINING,0,268,89,190,158
706,NOGO,,0,0,1,0,6752.012087,go_nogo.csv,5,female265W,0.792935742,65.01416431,TRAINING,0,268,89,191,158
707,GO,0.04476881,1,0,0,0,6789.792085,go_nogo.csv,5,female265W,0.795128776,65.06364922,TRAINING,0,269,89,191,158
708,GO,0,1,0,0,0,6848.162079,go_nogo.csv,5,female265W,0.797312857,65.11299435,TRAINING,0,270,89,191,158
709,GO,0.187653065,1,0,0,0,6956.112091,go_nogo.csv,5,female265W,0.799488055,65.16220028,TRAINING,0,271,89,191,158
710,NOGO,,0,0,1,0,7020.022094,go_nogo.csv,5,female265W,0.802745485,65.21126761,TRAINING,0,271,89,192,158
711,GO,0.034767151,1,0,0,0,7033.872112,go_nogo.csv,5,female265W,0.804911865,65.26019691,TRAINING,0,272,89,192,158
712,NOGO,1.628026962,0,0,0,1,7236.762084,go_nogo.csv,5,female265W,0.800978318,65.16853933,TRAINING,0,272,89,192,159
713,GO,0.289834023,1,0,0,0,7265.252105,go_nogo.csv,5,female265W,0.803135947,65.2173913,TRAINING,0,273,89,192,159
714,NOGO,0.643115997,0,0,0,1,7435.56207,go_nogo.csv,5,female265W,0.799226492,65.12605042,TRAINING,0,273,89,192,160
715,GO,0.30005312,1,0,0,0,7647.592065,go_nogo.csv,5,female265W,0.801375435,65.17482517,TRAINING,0,274,89,192,160
716,NOGO,,0,0,1,0,8036.832081,go_nogo.csv,5,female265W,0.804616465,65.22346369,TRAINING,0,274,89,193,160
717,NOGO,,0,0,1,0,8051.812081,go_nogo.csv,5,female265W,0.807840456,65.27196653,TRAINING,0,274,89,194,160
718,NOGO,,0,0,1,0,8149.032094,go_nogo.csv,5,female265W,0.811047575,65.32033426,TRAINING,0,274,89,195,160
719,GO,0.412290096,1,0,0,0,8165.582118,go_nogo.csv,5,female265W,0.813187896,65.36856745,TRAINING,0,275,89,195,160
720,NOGO,0.63704896,0,0,0,1,8327.912104,go_nogo.csv,5,female265W,0.80930345,65.27777778,TRAINING,0,275,89,195,161
721,GO,0.232817888,1,0,0,0,8361.962061,go_nogo.csv,5,female265W,0.811435214,65.3259362,TRAINING,0,276,89,195,161
722,NOGO,0.94791007,0,0,0,1,8703.092107,go_nogo.csv,5,female265W,0.807574258,65.23545706,TRAINING,0,276,89,195,162
723,NOGO,0.175431013,0,0,0,1,8727.912089,go_nogo.csv,5,female265W,0.803736523,65.14522822,TRAINING,0,276,89,195,163
724,NOGO,,0,0,1,0,8776.50209,go_nogo.csv,5,female265W,0.806928138,65.19337017,TRAINING,0,276,89,196,163
725,NOGO,0,0,0,0,1,8791.382114,go_nogo.csv,5,female265W,0.803113729,65.10344828,TRAINING,0,276,89,196,164
726,NOGO,0.669324875,0,0,0,1,8822.402078,go_nogo.csv,5,female265W,0.799322,65.0137741,TRAINING,0,276,89,196,165
727,GO,1.417699099,1,0,0,0,8847.902078,go_nogo.csv,5,female265W,0.801445269,65.06189821,TRAINING,0,277,89,196,165
728,GO,0.49355793,1,0,0,0,9019.472301,go_nogo.csv,5,female265W,0.803560106,65.10989011,TRAINING,0,278,89,196,165
729,NOGO,,0,0,1,0,9207.172089,go_nogo.csv,5,female265W,0.806735946,65.15775034,TRAINING,0,278,89,197,165
730,NOGO,,0,0,1,0,9224.94206,go_nogo.csv,5,female265W,0.809895445,65.20547945,TRAINING,0,278,89,198,165
731,GO,1.676645994,1,0,0,0,9258.882078,go_nogo.csv,5,female265W,0.812001912,65.25307798,TRAINING,0,279,89,198,165
732,GO,0.451020002,1,0,0,0,9419.152066,go_nogo.csv,5,female265W,0.81410007,65.30054645,TRAINING,0,280,89,198,165
733,GO,,0,1,0,0,9512.052086,go_nogo.csv,5,female265W,0.807569832,65.21145975,TRAINING,0,280,90,198,165
734,GO,1.464980841,1,0,0,0,9526.06209,go_nogo.csv,5,female265W,0.809662174,65.25885559,TRAINING,0,281,90,198,165
735,GO,1.148983002,1,0,0,0,9708.542093,go_nogo.csv,5,female265W,0.811746322,65.30612245,TRAINING,0,282,90,198,165
736,GO,0,1,0,0,0,9784.772083,go_nogo.csv,5,female265W,0.813822337,65.35326087,TRAINING,0,283,90,198,165
737,GO,,0,1,0,0,9820.662295,go_nogo.csv,5,female265W,0.807363583,65.26458616,TRAINING,0,283,91,198,165
738,GO,0.642596006,1,0,0,0,9839.732087,go_nogo.csv,5,female265W,0.809433902,65.31165312,TRAINING,0,284,91,198,165
739,GO,0.329694986,1,0,0,0,9865.912091,go_nogo.csv,5,female265W,0.8114962,65.35859269,TRAINING,0,285,91,198,165
740,GO,,0,1,0,0,10133.24211,go_nogo.csv,5,female265W,0.805105051,65.27027027,TRAINING,0,285,92,198,165
741,NOGO,,0,0,1,0,10147.9721,go_nogo.csv,5,female265W,0.808248364,65.317139,TRAINING,0,285,92,199,165
742,GO,0.827630997,1,0,0,0,10161.6721,go_nogo.csv,5,female265W,0.810305031,65.3638814,TRAINING,0,286,92,199,165
743,NOGO,,0,0,1,0,10345.32209,go_nogo.csv,5,female265W,0.813432315,65.41049798,TRAINING,0,286,92,200,165
744,GO,0.220035076,1,0,0,0,10361.28229,go_nogo.csv,5,female265W,0.81548107,65.45698925,TRAINING,0,287,92,200,165
745,NOGO,,0,0,1,0,10415.64206,go_nogo.csv,5,female265W,0.818592478,65.5033557,TRAINING,0,287,92,201,165
746,NOGO,0.691606045,0,0,0,1,10440.68209,go_nogo.csv,5,female265W,0.814825006,65.4155496,TRAINING,0,287,92,201,166
747,NOGO,0.179520845,0,0,0,1,10494.32208,go_nogo.csv,5,female265W,0.811079636,65.32797858,TRAINING,0,287,92,201,167
748,NOGO,,0,0,1,0,10518.55206,go_nogo.csv,5,female265W,0.814176085,65.37433155,TRAINING,0,287,92,202,167
749,NOGO,,0,0,1,0,10533.66209,go_nogo.csv,5,female265W,0.817256973,65.42056075,TRAINING,0,287,92,203,167
750,GO,0.757029057,1,0,0,0,10548.9621,go_nogo.csv,5,female265W,0.819297873,65.46666667,TRAINING,0,288,92,203,167
751,NOGO,,0,0,1,0,10642.03209,go_nogo.csv,5,female265W,0.822363345,65.5126498,TRAINING,0,288,92,204,167
752,GO,0,1,0,0,0,10681.69208,go_nogo.csv,5,female265W,0.824396446,65.55851064,TRAINING,0,289,92,204,167
753,NOGO,,0,0,1,0,10766.05207,go_nogo.csv,5,female265W,0.827446646,65.60424967,TRAINING,0,289,92,205,167
754,NOGO,1.779757977,0,0,0,1,10799.93207,go_nogo.csv,5,female265W,0.823724629,65.51724138,TRAINING,0,289,92,205,168
755,NOGO,,0,0,1,0,10827.14208,go_nogo.csv,5,female265W,0.826760093,65.56291391,TRAINING,0,289,92,206,168
756,NOGO,0.086168051,0,0,0,1,10843.0521,go_nogo.csv,5,female265W,0.823060014,65.47619048,TRAINING,0,289,92,206,169
757,GO,0.047674894,1,0,0,0,10895.14207,go_nogo.csv,5,female265W,0.825085371,65.52179657,TRAINING,0,290,92,206,169
758,GO,0.160418987,1,0,0,0,10946.11208,go_nogo.csv,5,female265W,0.827103038,65.56728232,TRAINING,0,291,92,206,169
759,GO,,0,1,0,0,10990.55208,go_nogo.csv,5,female265W,0.820787213,65.48089592,TRAINING,0,291,93,206,169
760,NOGO,,0,0,1,0,11047.47208,go_nogo.csv,5,female265W,0.823808083,65.52631579,TRAINING,0,291,93,207,169
761,GO,0.369406939,1,0,0,0,11099.69211,go_nogo.csv,5,female265W,0.825820386,65.57161629,TRAINING,0,292,93,207,169
762,GO,0.416422844,1,0,0,0,11150.13208,go_nogo.csv,5,female265W,0.827825102,65.6167979,TRAINING,0,293,93,207,169
763,NOGO,,0,0,1,0,11392.31209,go_nogo.csv,5,female265W,0.830831136,65.66186107,TRAINING,0,293,93,208,169
764,GO,0.171441078,1,0,0,0,11407.13208,go_nogo.csv,5,female265W,0.832828318,65.70680628,TRAINING,0,294,93,208,169
765,GO,0.468614101,1,0,0,0,11645.26209,go_nogo.csv,5,female265W,0.83481802,65.75163399,TRAINING,0,295,93,208,169
766,NOGO,,0,0,1,0,11683.88207,go_nogo.csv,5,female265W,0.837809353,65.79634465,TRAINING,0,295,93,209,169
767,GO,1.359989166,1,0,0,0,11711.68209,go_nogo.csv,5,female265W,0.839791625,65.84093872,TRAINING,0,296,93,209,169
768,GO,0.958808184,1,0,0,0,11882.09208,go_nogo.csv,5,female265W,0.841766519,65.88541667,TRAINING,0,297,93,209,169
769,GO,0.019532204,1,0,0,0,11929.86209,go_nogo.csv,5,female265W,0.843734085,65.92977893,TRAINING,0,298,93,209,169
770,NOGO,,0,0,1,0,12157.27208,go_nogo.csv,5,female265W,0.846710852,65.97402597,TRAINING,0,298,93,210,169
771,NOGO,,0,0,1,0,12172.86211,go_nogo.csv,5,female265W,0.849673187,66.01815824,TRAINING,0,298,93,211,169
772,GO,0.157179832,1,0,0,0,12186.88207,go_nogo.csv,5,female265W,0.851633475,66.06217617,TRAINING,0,299,93,211,169
773,GO,1.309863091,1,0,0,0,12357.16206,go_nogo.csv,5,female265W,0.853586536,66.10608021,TRAINING,0,300,93,211,169
774,GO,1.364617109,1,0,0,0,12650.45208,go_nogo.csv,5,female265W,0.855532418,66.1498708,TRAINING,0,301,93,211,169
775,NOGO,,0,0,1,0,12803.53226,go_nogo.csv,5,female265W,0.85848045,66.19354839,TRAINING,0,301,93,212,169
776,GO,1.026955843,1,0,0,0,12820.41206,go_nogo.csv,5,female265W,0.860419203,66.2371134,TRAINING,0,302,93,212,169
777,GO,0.459011078,1,0,0,0,12904.05208,go_nogo.csv,5,female265W,0.862350873,66.28056628,TRAINING,0,303,93,212,169
778,NOGO,0.291975975,0,0,0,1,12960.83209,go_nogo.csv,5,female265W,0.858674449,66.19537275,TRAINING,0,303,93,212,170
779,GO,1.521724939,1,0,0,0,12984.99207,go_nogo.csv,5,female265W,0.860599086,66.23876765,TRAINING,0,304,93,212,170
780,NOGO,,0,0,1,0,13066.22209,go_nogo.csv,5,female265W,0.86353336,66.28205128,TRAINING,0,304,93,213,170
781,GO,0,1,0,0,0,13080.57208,go_nogo.csv,5,female265W,0.86545101,66.32522407,TRAINING,0,305,93,213,170
782,GO,,0,1,0,0,13178.24209,go_nogo.csv,5,female265W,0.859226337,66.24040921,TRAINING,0,305,94,213,170
783,NOGO,0.912249088,0,0,0,1,13377.33228,go_nogo.csv,5,female265W,0.855571311,66.15581098,TRAINING,0,305,94,213,171
784,NOGO,,0,0,1,0,13401.8521,go_nogo.csv,5,female265W,0.858491953,66.19897959,TRAINING,0,305,94,214,171
785,NOGO,0.928855181,0,0,0,1,13416.30206,go_nogo.csv,5,female265W,0.854858078,66.11464968,TRAINING,0,305,94,214,172
786,NOGO,1.93187809,0,0,0,1,13444.1221,go_nogo.csv,5,female265W,0.851244721,66.03053435,TRAINING,0,305,94,214,173
787,NOGO,0.381671906,0,0,0,1,13470.55208,go_nogo.csv,5,female265W,0.847651662,65.94663278,TRAINING,0,305,94,214,174
788,NOGO,,0,0,1,0,13497.88211,go_nogo.csv,5,female265W,0.850559566,65.98984772,TRAINING,0,305,94,215,174
789,GO,,0,1,0,0,13513.72209,go_nogo.csv,5,female265W,0.844393445,65.90621039,TRAINING,0,305,95,215,174
790,GO,0.545850039,1,0,0,0,13533.53207,go_nogo.csv,5,female265W,0.846308488,65.94936709,TRAINING,0,306,95,215,174
791,GO,0,1,0,0,0,13607.98208,go_nogo.csv,5,female265W,0.84821663,65.99241466,TRAINING,0,307,95,215,174
792,GO,0.203407049,1,0,0,0,13973.22208,go_nogo.csv,5,female265W,0.850117917,66.03535354,TRAINING,0,308,95,215,174
793,NOGO,,0,0,1,0,14131.44209,go_nogo.csv,5,female265W,0.853012056,66.07818411,TRAINING,0,308,95,216,174
794,NOGO,,0,0,1,0,14259.19208,go_nogo.csv,5,female265W,0.855892552,66.1209068,TRAINING,0,308,95,217,174
795,GO,0.522353888,1,0,0,0,14274.35208,go_nogo.csv,5,female265W,0.85778703,66.16352201,TRAINING,0,309,95,217,174
796,NOGO,,0,0,1,0,14576.56207,go_nogo.csv,5,female265W,0.860654003,66.20603015,TRAINING,0,309,95,218,174
797,NOGO,,0,0,1,0,14592.57206,go_nogo.csv,5,female265W,0.863507571,66.24843162,TRAINING,0,309,95,219,174
798,GO,1.264882088,1,0,0,0,14632.91209,go_nogo.csv,5,female265W,0.865395285,66.29072682,TRAINING,0,310,95,219,174
799,NOGO,0.94608593,0,0,0,1,14812.38208,go_nogo.csv,5,female265W,0.861824195,66.2077597,TRAINING,0,310,95,219,175
800,NOGO,1.712391138,0,0,0,1,14868.06225,go_nogo.csv,5,female265W,0.858272912,66.125,TRAINING,0,310,95,219,176
801,GO,0,1,0,0,0,14905.64211,go_nogo.csv,5,female265W,0.860153906,66.16729089,TRAINING,0,311,95,219,176
802,GO,0,1,0,0,0,15144.48208,go_nogo.csv,5,female265W,0.862028225,66.20947631,TRAINING,0,312,95,219,176
803,GO,0.168381929,1,0,0,0,15283.89212,go_nogo.csv,5,female265W,0.863895911,66.25155666,TRAINING,0,313,95,219,176
804,NOGO,,0,0,1,0,15364.73208,go_nogo.csv,5,female265W,0.866736972,66.29353234,TRAINING,0,313,95,220,176
805,GO,,0,1,0,0,15391.65206,go_nogo.csv,5,female265W,0.86064512,66.21118012,TRAINING,0,313,96,220,176
806,NOGO,0.796364069,0,0,0,1,15429.65208,go_nogo.csv,5,female265W,0.857113809,66.12903226,TRAINING,0,313,96,220,177
807,NOGO,0.917998075,0,0,0,1,15458.91208,go_nogo.csv,5,female265W,0.853601878,66.04708798,TRAINING,0,313,96,220,178
808,NOGO,,0,0,1,0,15484.58206,go_nogo.csv,5,female265W,0.856430525,66.08910891,TRAINING,0,313,96,221,178
809,GO,0.703625917,1,0,0,0,15499.38208,go_nogo.csv,5,female265W,0.858293711,66.13102596,TRAINING,0,314,96,221,178
810,GO,0.482758999,1,0,0,0,15560.94209,go_nogo.csv,5,female265W,0.860150347,66.17283951,TRAINING,0,315,96,221,178
811,NOGO,,0,0,1,0,15775.90207,go_nogo.csv,5,female265W,0.862965959,66.21454994,TRAINING,0,315,96,222,178
812,GO,0,1,0,0,0,15790.90209,go_nogo.csv,5,female265W,0.864816089,66.25615764,TRAINING,0,316,96,222,178
813,GO,0.681910992,1,0,0,0,16305.03208,go_nogo.csv,5,female265W,0.866659755,66.29766298,TRAINING,0,317,96,222,178
814,NOGO,,0,0,1,0,16409.28207,go_nogo.csv,5,female265W,0.869462445,66.33906634,TRAINING,0,317,96,223,178
815,GO,0.312327862,1,0,0,0,16423.03226,go_nogo.csv,5,female265W,0.871299688,66.3803681,TRAINING,0,318,96,223,178
816,GO,0.475765944,1,0,0,0,16717.3821,go_nogo.csv,5,female265W,0.873130549,66.42156863,TRAINING,0,319,96,223,178
817,NOGO,,0,0,1,0,16772.50206,go_nogo.csv,5,female265W,0.875920427,66.4626683,TRAINING,0,319,96,224,178
818,NOGO,,0,0,1,0,16786.75206,go_nogo.csv,5,female265W,0.878697604,66.50366748,TRAINING,0,319,96,225,178
819,NOGO,0.594129086,0,0,0,1,16806.15208,go_nogo.csv,5,female265W,0.875206687,66.42246642,TRAINING,0,319,96,225,179
820,GO,0.25160408,1,0,0,0,16832.76209,go_nogo.csv,5,female265W,0.877031208,66.46341463,TRAINING,0,320,96,225,179
821,GO,0.331451893,1,0,0,0,16881.44206,go_nogo.csv,5,female265W,0.878849429,66.50426309,TRAINING,0,321,96,225,179
822,GO,1.102523804,1,0,0,0,17572.52212,go_nogo.csv,5,female265W,0.88066139,66.54501217,TRAINING,0,322,96,225,179
823,NOGO,,0,0,1,0,17640.1421,go_nogo.csv,5,female265W,0.883426357,66.58566221,TRAINING,0,322,96,226,179
824,GO,1.453857899,1,0,0,0,17654.44207,go_nogo.csv,5,female265W,0.885232098,66.62621359,TRAINING,0,323,96,226,179
825,NOGO,,0,0,1,0,17697.91207,go_nogo.csv,5,female265W,0.887984583,66.66666667,TRAINING,0,323,96,227,179
826,NOGO,,0,0,1,0,17712.49207,go_nogo.csv,5,female265W,0.890724691,66.70702179,TRAINING,0,323,96,228,179
827,NOGO,0,0,0,0,1,17727.59207,go_nogo.csv,5,female265W,0.887253832,66.62636034,TRAINING,0,323,96,228,180
828,GO,0.407896996,1,0,0,0,17753.81209,go_nogo.csv,5,female265W,0.889053392,66.66666667,TRAINING,0,324,96,228,180
829,NOGO,,0,0,1,0,17783.64208,go_nogo.csv,5,female265W,0.891781617,66.70687575,TRAINING,0,324,96,229,180
830,NOGO,,0,0,1,0,17821.16207,go_nogo.csv,5,female265W,0.894497677,66.74698795,TRAINING,0,324,96,230,180
831,GO,0.392176151,1,0,0,0,17838.48228,go_nogo.csv,5,female265W,0.896291096,66.78700361,TRAINING,0,325,96,230,180
832,NOGO,,0,0,1,0,7.099302053,go_nogo.csv,6,female265W,0.898995093,66.82692308,TRAINING,0,325,96,231,180
833,GO,,0,1,0,0,22.88924813,go_nogo.csv,6,female265W,0.892983792,66.74669868,TRAINING,0,325,97,231,180
834,NOGO,,0,0,1,0,97.71933007,go_nogo.csv,6,female265W,0.895675825,66.78657074,TRAINING,0,325,97,232,180
835,GO,0.745596886,1,0,0,0,112.9892681,go_nogo.csv,6,female265W,0.897465156,66.82634731,TRAINING,0,326,97,232,180
836,GO,,0,1,0,0,541.9692452,go_nogo.csv,6,female265W,0.891510532,66.74641148,TRAINING,0,326,98,232,180
837,GO,1.310600996,1,0,0,0,2208.329297,go_nogo.csv,6,female265W,0.893295778,66.78614098,TRAINING,0,327,98,232,180
838,NOGO,0.878261089,0,0,0,1,2271.059251,go_nogo.csv,6,female265W,0.889845156,66.70644391,TRAINING,0,327,98,232,181
839,NOGO,0.429189205,0,0,0,1,2328.699253,go_nogo.csv,6,female265W,0.886412996,66.62693683,TRAINING,0,327,98,232,182
840,GO,0.327569008,1,0,0,0,2359.639261,go_nogo.csv,6,female265W,0.888192208,66.66666667,TRAINING,0,328,98,232,182
841,GO,0.533836126,1,0,0,0,2817.699285,go_nogo.csv,6,female265W,0.889965425,66.70630202,TRAINING,0,329,98,232,182
842,GO,1.92256999,1,0,0,0,2946.65928,go_nogo.csv,6,female265W,0.891732684,66.74584323,TRAINING,0,330,98,232,182
843,NOGO,,0,0,1,0,3032.999263,go_nogo.csv,6,female265W,0.894413638,66.78529063,TRAINING,0,330,98,233,182
844,GO,,0,1,0,0,3210.179263,go_nogo.csv,6,female265W,0.888520461,66.70616114,TRAINING,0,330,99,233,182
845,NOGO,,0,0,1,0,3285.27925,go_nogo.csv,6,female265W,0.891189658,66.74556213,TRAINING,0,330,99,234,182
846,NOGO,,0,0,1,0,3305.249271,go_nogo.csv,6,female265W,0.893847195,66.78486998,TRAINING,0,330,99,235,182
847,NOGO,0.226800203,0,0,0,1,3322.749269,go_nogo.csv,6,female265W,0.890434453,66.70602125,TRAINING,0,330,99,235,183
848,NOGO,,0,0,1,0,3348.949273,go_nogo.csv,6,female265W,0.893080815,66.74528302,TRAINING,0,330,99,236,183
849,GO,1.755362988,1,0,0,0,3408.249265,go_nogo.csv,6,female265W,0.894844093,66.7844523,TRAINING,0,331,99,236,183
850,NOGO,,0,0,1,0,3474.699269,go_nogo.csv,6,female265W,0.897478988,66.82352941,TRAINING,0,331,99,237,183
851,NOGO,,0,0,1,0,3494.499284,go_nogo.csv,6,female265W,0.900102509,66.86251469,TRAINING,0,331,99,238,183
852,GO,0,1,0,0,0,3512.489303,go_nogo.csv,6,female265W,0.901859899,66.90140845,TRAINING,0,332,99,238,183
853,GO,0.572191,1,0,0,0,3742.059265,go_nogo.csv,6,female265W,0.903611437,66.94021102,TRAINING,0,333,99,238,183
854,NOGO,,0,0,1,0,3783.169253,go_nogo.csv,6,female265W,0.906223676,66.97892272,TRAINING,0,333,99,239,183
855,GO,0.202146053,1,0,0,0,3800.739296,go_nogo.csv,6,female265W,0.907969398,67.01754386,TRAINING,0,334,99,239,183
856,NOGO,,0,0,1,0,3913.959271,go_nogo.csv,6,female265W,0.910570445,67.05607477,TRAINING,0,334,99,240,183
857,GO,0.818860054,1,0,0,0,3953.269253,go_nogo.csv,6,female265W,0.912310388,67.09451575,TRAINING,0,335,99,240,183
858,NOGO,0.530182838,0,0,0,1,4108.329311,go_nogo.csv,6,female265W,0.908917654,67.01631702,TRAINING,0,335,99,240,184
859,GO,,0,1,0,0,4161.669259,go_nogo.csv,6,female265W,0.903086567,66.93830035,TRAINING,0,335,100,240,184
860,GO,0.163246155,1,0,0,0,4206.219254,go_nogo.csv,6,female265W,0.904822662,66.97674419,TRAINING,0,336,100,240,184
861,GO,,0,1,0,0,4316.839268,go_nogo.csv,6,female265W,0.899044919,66.8989547,TRAINING,0,336,101,240,184
862,GO,0,1,0,0,0,4336.009257,go_nogo.csv,6,female265W,0.900777167,66.93735499,TRAINING,0,337,101,240,184
863,NOGO,,0,0,1,0,4590.459261,go_nogo.csv,6,female265W,0.903367515,66.97566628,TRAINING,0,337,101,241,184
864,NOGO,,0,0,1,0,4610.809277,go_nogo.csv,6,female265W,0.905946854,67.01388889,TRAINING,0,337,101,242,184
865,GO,0.224942923,1,0,0,0,4625.479271,go_nogo.csv,6,female265W,0.907673421,67.05202312,TRAINING,0,338,101,242,184
866,NOGO,0,0,0,0,1,4700.999246,go_nogo.csv,6,female265W,0.904299302,66.97459584,TRAINING,0,338,101,242,185
867,GO,0.892803907,1,0,0,0,4727.079275,go_nogo.csv,6,female265W,0.906020223,67.01268743,TRAINING,0,339,101,242,185
868,GO,0.151395082,1,0,0,0,5030.839265,go_nogo.csv,6,female265W,0.907735531,67.05069124,TRAINING,0,340,101,242,185
869,NOGO,,0,0,1,0,5102.479255,go_nogo.csv,6,female265W,0.91030435,67.08860759,TRAINING,0,340,101,243,185
870,GO,,0,1,0,0,5125.599276,go_nogo.csv,6,female265W,0.904584476,67.01149425,TRAINING,0,340,102,243,185
871,GO,0.409813166,1,0,0,0,5174.489255,go_nogo.csv,6,female265W,0.906296033,67.04936854,TRAINING,0,341,102,243,185
872,NOGO,1.021728039,0,0,0,1,5251.459256,go_nogo.csv,6,female265W,0.902939933,66.97247706,TRAINING,0,341,102,243,186
873,NOGO,1.284359932,0,0,0,1,5523.049279,go_nogo.csv,6,female265W,0.899601271,66.89576174,TRAINING,0,341,102,243,187
874,NOGO,,0,0,1,0,5548.949253,go_nogo.csv,6,female265W,0.902160042,66.93363844,TRAINING,0,341,102,244,187
875,GO,1.482637882,1,0,0,0,5562.179252,go_nogo.csv,6,female265W,0.903866051,66.97142857,TRAINING,0,342,102,244,187
876,NOGO,,0,0,1,0,5635.289277,go_nogo.csv,6,female265W,0.906414084,67.00913242,TRAINING,0,342,102,245,187
877,NOGO,0.413823843,0,0,0,1,5685.099255,go_nogo.csv,6,female265W,0.903093448,66.9327252,TRAINING,0,342,102,245,188
878,NOGO,1.855762959,0,0,0,1,5709.519249,go_nogo.csv,6,female265W,0.89978989,66.85649203,TRAINING,0,342,102,245,189
879,NOGO,,0,0,1,0,5737.769265,go_nogo.csv,6,female265W,0.90232803,66.89419795,TRAINING,0,342,102,246,189
880,GO,0.305238008,1,0,0,0,5811.429274,go_nogo.csv,6,female265W,0.904028525,66.93181818,TRAINING,0,343,102,246,189
881,GO,,0,1,0,0,5933.739253,go_nogo.csv,6,female265W,0.898363577,66.85584563,TRAINING,0,343,103,246,189
882,GO,0.370980024,1,0,0,0,6106.679277,go_nogo.csv,6,female265W,0.900060384,66.89342404,TRAINING,0,344,103,246,189
883,NOGO,,0,0,1,0,6143.839273,go_nogo.csv,6,female265W,0.902587962,66.93091733,TRAINING,0,344,103,247,189
884,NOGO,0.668056011,0,0,0,1,6187.859256,go_nogo.csv,6,female265W,0.899302051,66.85520362,TRAINING,0,344,103,247,190
885,GO,0.45533514,1,0,0,0,6214.849277,go_nogo.csv,6,female265W,0.900993405,66.89265537,TRAINING,0,345,103,247,190
886,GO,0,1,0,0,0,6414.229259,go_nogo.csv,6,female265W,0.902679339,66.93002257,TRAINING,0,346,103,247,190
887,GO,,0,1,0,0,6488.489243,go_nogo.csv,6,female265W,0.897068273,66.85456595,TRAINING,0,346,104,247,190
888,GO,1.664327145,1,0,0,0,6516.559265,go_nogo.csv,6,female265W,0.89875058,66.89189189,TRAINING,0,347,104,247,190
889,NOGO,,0,0,1,0,6570.839285,go_nogo.csv,6,female265W,0.901268053,66.92913386,TRAINING,0,347,104,248,190
890,NOGO,1.48824501,0,0,0,1,6664.829251,go_nogo.csv,6,female265W,0.897999235,66.85393258,TRAINING,0,347,104,248,191
891,NOGO,,0,0,1,0,6732.78927,go_nogo.csv,6,female265W,0.900506682,66.89113356,TRAINING,0,347,104,249,191
892,GO,0.238718987,1,0,0,0,6747.989268,go_nogo.csv,6,female265W,0.90218363,66.92825112,TRAINING,0,348,104,249,191
893,NOGO,,0,0,1,0,6802.039242,go_nogo.csv,6,female265W,0.904680766,66.96528555,TRAINING,0,348,104,250,191
894,GO,0,1,0,0,0,6815.589287,go_nogo.csv,6,female265W,0.906352387,67.00223714,TRAINING,0,349,104,250,191
895,GO,,0,1,0,0,6875.239267,go_nogo.csv,6,female265W,0.900794187,66.9273743,TRAINING,0,349,105,250,191
896,GO,1.388597965,1,0,0,0,6891.339259,go_nogo.csv,6,female265W,0.902462239,66.96428571,TRAINING,0,350,105,250,191
897,GO,,0,1,0,0,7013.569281,go_nogo.csv,6,female265W,0.896952518,66.88963211,TRAINING,0,350,106,250,191
898,GO,0,1,0,0,0,7057.769289,go_nogo.csv,6,female265W,0.898617005,66.92650334,TRAINING,0,351,106,250,191
899,NOGO,,0,0,1,0,7101.429277,go_nogo.csv,6,female265W,0.901103908,66.96329255,TRAINING,0,351,106,251,191
900,GO,0.113492012,1,0,0,0,7123.42926,go_nogo.csv,6,female265W,0.902763155,67,TRAINING,0,352,106,251,191
901,GO,0.104284048,1,0,0,0,7408.599276,go_nogo.csv,6,female265W,0.904417193,67.03662597,TRAINING,0,353,106,251,191
902,GO,1.741704941,1,0,0,0,7616.589249,go_nogo.csv,6,female265W,0.906066052,67.07317073,TRAINING,0,354,106,251,191
903,NOGO,1.50110507,0,0,0,1,7706.469237,go_nogo.csv,6,female265W,0.902814884,66.99889258,TRAINING,0,354,106,251,192
904,GO,0.379822969,1,0,0,0,7825.099264,go_nogo.csv,6,female265W,0.904458594,67.03539823,TRAINING,0,355,106,251,192
905,NOGO,,0,0,1,0,7878.929264,go_nogo.csv,6,female265W,0.906935716,67.0718232,TRAINING,0,355,106,252,192
906,NOGO,,0,0,1,0,7895.58924,go_nogo.csv,6,female265W,0.909402766,67.10816777,TRAINING,0,355,106,253,192
907,GO,0.175441027,1,0,0,0,7943.079296,go_nogo.csv,6,female265W,0.911041357,67.14443219,TRAINING,0,356,106,253,192
908,NOGO,,0,0,1,0,7964.609251,go_nogo.csv,6,female265W,0.91349841,67.18061674,TRAINING,0,356,106,254,192
909,NOGO,0.13188386,0,0,0,1,7982.13926,go_nogo.csv,6,female265W,0.910264713,67.10671067,TRAINING,0,356,106,254,193
910,GO,0.834282875,1,0,0,0,8006.579261,go_nogo.csv,6,female265W,0.911898215,67.14285714,TRAINING,0,357,106,254,193
911,NOGO,,0,0,1,0,8055.289268,go_nogo.csv,6,female265W,0.914345722,67.17892426,TRAINING,0,357,106,255,193
912,GO,0.540765047,1,0,0,0,8075.729241,go_nogo.csv,6,female265W,0.915974163,67.21491228,TRAINING,0,358,106,255,193
913,NOGO,1.95015502,0,0,0,1,8113.609519,go_nogo.csv,6,female265W,0.912757017,67.14129244,TRAINING,0,358,106,255,194
914,NOGO,0,0,0,0,1,8154.729284,go_nogo.csv,6,female265W,0.909555892,67.0678337,TRAINING,0,358,106,255,195
915,GO,0.04507494,1,0,0,0,8469.299261,go_nogo.csv,6,female265W,0.911179302,67.10382514,TRAINING,0,359,106,255,195
916,NOGO,,0,0,1,0,8569.839269,go_nogo.csv,6,female265W,0.913617699,67.13973799,TRAINING,0,359,106,256,195
917,GO,0.596916199,1,0,0,0,8586.18925,go_nogo.csv,6,female265W,0.915236105,67.17557252,TRAINING,0,360,106,256,195
918,GO,0.546939135,1,0,0,0,8610.56925,go_nogo.csv,6,female265W,0.916849537,67.21132898,TRAINING,0,361,106,256,195
919,GO,,0,1,0,0,8698.939256,go_nogo.csv,6,female265W,0.91140409,67.13819369,TRAINING,0,361,107,256,195
920,NOGO,0.427145958,0,0,0,1,8716.709255,go_nogo.csv,6,female265W,0.908219187,67.06521739,TRAINING,0,361,107,256,196
921,NOGO,,0,0,1,0,8742.259239,go_nogo.csv,6,female265W,0.91064818,67.1009772,TRAINING,0,361,107,257,196
922,NOGO,0,0,0,0,1,8757.099258,go_nogo.csv,6,female265W,0.907479336,67.02819957,TRAINING,0,361,107,257,197
923,GO,0.485307932,1,0,0,0,8781.249247,go_nogo.csv,6,female265W,0.909089472,67.06392199,TRAINING,0,362,107,257,197
924,NOGO,0.726274014,0,0,0,1,8795.17924,go_nogo.csv,6,female265W,0.905936181,66.99134199,TRAINING,0,362,107,257,198
