Trial_number,Trial_type,Response_time_s,Hit,Miss,Reject,False_alarm,Time_from_start,Rule,Day_of_training,Subject,d_prime_partial,%Correct_partial,Treatment,Day_of_treatment,Hit_cumsum,Miss_cumsum,CR_cumsum,FA_cumsum
1,GO,,0,1,0,0,10.333908081054688,go2500_nogo2700,1,SRCF014,-0.6744897501960817,0.0,TRAINING,0,0,1,0,0
2,GO,0.5034408569335938,1,0,0,0,22.94332790374756,go2500_nogo2700,1,SRCF014,0.0,50.0,TRAINING,0,1,1,0,0
3,NOGO,0.4339160919189453,0,0,0,1,36.063215017318726,go2500_nogo2700,1,SRCF014,-0.6744897501960817,33.33333333333333,TRAINING,0,1,1,0,1
4,NOGO,1.0562269687652588,0,0,0,1,60.24301409721375,go2500_nogo2700,1,SRCF014,-0.967421566101701,25.0,TRAINING,0,1,1,0,2
5,GO,0.4539101123809814,1,0,0,0,84.64274191856384,go2500_nogo2700,1,SRCF014,-0.648782202137326,40.0,TRAINING,0,2,1,0,2
6,GO,0.337874174118042,1,0,0,0,97.83262801170348,go2500_nogo2700,1,SRCF014,-0.4430210533936604,50.0,TRAINING,0,3,1,0,2
7,NOGO,0.9025609493255616,0,0,0,1,129.40240907669067,go2500_nogo2700,1,SRCF014,-0.6259488676679672,42.857142857142854,TRAINING,0,3,1,0,3
8,NOGO,0.0637638568878173,0,0,0,1,152.62229990959167,go2500_nogo2700,1,SRCF014,-0.7571510528365597,37.5,TRAINING,0,3,1,0,4
9,NOGO,0.3608567714691162,0,0,0,1,175.75205993652344,go2500_nogo2700,1,SRCF014,-0.8585936143925974,33.33333333333333,TRAINING,0,3,1,0,5
10,GO,0.7360429763793945,1,0,0,0,198.8918390274048,go2500_nogo2700,1,SRCF014,-0.7085043769045564,40.0,TRAINING,0,4,1,0,5
11,GO,0.9585440158843994,1,0,0,0,210.6716620922089,go2500_nogo2700,1,SRCF014,-0.5913555193572635,45.45454545454545,TRAINING,0,5,1,0,5
12,GO,,0,1,0,0,254.14118599891663,go2500_nogo2700,1,SRCF014,-0.8942177159859686,41.66666666666667,TRAINING,0,5,2,0,5
13,GO,,0,1,0,0,286.5509068965912,go2500_nogo2700,1,SRCF014,-1.1007779800381299,38.46153846153847,TRAINING,0,5,3,0,5
14,NOGO,0.2506520748138428,0,0,0,1,303.5307710170746,go2500_nogo2700,1,SRCF014,-1.1830176456230148,35.714285714285715,TRAINING,0,5,3,0,6
15,NOGO,0.0421869754791259,0,0,0,1,326.3404948711395,go2500_nogo2700,1,SRCF014,-1.251904397290038,33.33333333333333,TRAINING,0,5,3,0,7
16,NOGO,0.6112699508666992,0,0,0,1,356.6802930831909,go2500_nogo2700,1,SRCF014,-1.3110026709605418,31.25,TRAINING,0,5,3,0,8
17,NOGO,0.2937459945678711,0,0,0,1,394.3399140834808,go2500_nogo2700,1,SRCF014,-1.362637479888964,29.411764705882355,TRAINING,0,5,3,0,9
18,GO,,0,1,0,0,595.1381108760834,go2500_nogo2700,1,SRCF014,-1.519192280096398,27.77777777777778,TRAINING,0,5,4,0,9
19,GO,,0,1,0,0,678.2173180580139,go2500_nogo2700,1,SRCF014,-1.6448536269514722,26.31578947368421,TRAINING,0,5,5,0,9
20,GO,,0,1,0,0,692.1372170448303,go2500_nogo2700,1,SRCF014,-1.7494870825655475,25.0,TRAINING,0,5,6,0,9
21,GO,,0,1,0,0,807.8461220264435,go2500_nogo2700,1,SRCF014,-1.8388817693753985,23.809523809523807,TRAINING,0,5,7,0,9
22,GO,,0,1,0,0,824.7959549427032,go2500_nogo2700,1,SRCF014,-1.9167336323507331,22.727272727272727,TRAINING,0,5,8,0,9
23,GO,,0,1,0,0,856.5256428718567,go2500_nogo2700,1,SRCF014,-1.9855484540392678,21.73913043478261,TRAINING,0,5,9,0,9
24,GO,0.7341089248657227,1,0,0,0,876.68545794487,go2500_nogo2700,1,SRCF014,-1.88205573628026,25.0,TRAINING,0,6,9,0,9
25,GO,1.0261640548706057,1,0,0,0,903.0652508735656,go2500_nogo2700,1,SRCF014,-1.7928407366773111,28.000000000000004,TRAINING,0,7,9,0,9
26,GO,,0,1,0,0,1047.4439260959623,go2500_nogo2700,1,SRCF014,-1.8552820211993968,26.923076923076923,TRAINING,0,7,10,0,9
27,GO,,0,1,0,0,1078.5236790180206,go2500_nogo2700,1,SRCF014,-1.9118477523564248,25.925925925925924,TRAINING,0,7,11,0,9
28,NOGO,1.7072291374206543,0,0,0,1,1107.7533419132233,go2500_nogo2700,1,SRCF014,-1.9576157549898512,25.0,TRAINING,0,7,11,0,10
29,NOGO,0.3584017753601074,0,0,0,1,1134.8731639385223,go2500_nogo2700,1,SRCF014,-1.998658521527198,24.137931034482758,TRAINING,0,7,11,0,11
30,NOGO,0.0,0,0,0,1,1186.232640028,go2500_nogo2700,1,SRCF014,-2.035819163923659,23.333333333333332,TRAINING,0,7,11,0,12
31,GO,0.3169851303100586,1,0,0,0,1208.282499074936,go2500_nogo2700,1,SRCF014,-1.957943464791499,25.806451612903224,TRAINING,0,8,11,0,12
32,NOGO,0.8136310577392578,0,0,0,1,1268.5520269870758,go2500_nogo2700,1,SRCF014,-1.9918615170119833,25.0,TRAINING,0,8,11,0,13
33,NOGO,0.0,0,0,0,1,1303.2916269302368,go2500_nogo2700,1,SRCF014,-2.0230330620887074,24.242424242424242,TRAINING,0,8,11,0,14
34,NOGO,0.83278489112854,0,0,0,1,1336.6813158988953,go2500_nogo2700,1,SRCF014,-2.051850293694444,23.52941176470588,TRAINING,0,8,11,0,15
35,NOGO,,0,0,1,0,1393.3807339668274,go2500_nogo2700,1,SRCF014,-1.5408206662034536,25.71428571428571,TRAINING,0,8,11,1,15
36,GO,0.9153871536254884,1,0,0,0,1406.2505910396576,go2500_nogo2700,1,SRCF014,-1.4713503529705032,27.77777777777778,TRAINING,0,9,11,1,15
37,GO,1.4681408405303955,1,0,0,0,1462.1900570392609,go2500_nogo2700,1,SRCF014,-1.4087019142890354,29.72972972972973,TRAINING,0,10,11,1,15
38,GO,0.9416899681091307,1,0,0,0,1505.9597098827362,go2500_nogo2700,1,SRCF014,-1.351702239930661,31.57894736842105,TRAINING,0,11,11,1,15
39,GO,0.1287679672241211,1,0,0,0,1631.3585290908811,go2500_nogo2700,1,SRCF014,-1.2994570595547206,33.33333333333333,TRAINING,0,12,11,1,15
40,NOGO,0.2578310966491699,0,0,0,1,1651.0084478855133,go2500_nogo2700,1,SRCF014,-1.3307489467246976,32.5,TRAINING,0,12,11,1,16
41,NOGO,1.0978071689605713,0,0,0,1,1699.4679169654846,go2500_nogo2700,1,SRCF014,-1.3599423985302228,31.70731707317073,TRAINING,0,12,11,1,17
42,GO,,0,1,0,0,1748.5374910831451,go2500_nogo2700,1,SRCF014,-1.4121875789061633,30.952380952380953,TRAINING,0,12,12,1,17
43,NOGO,1.1626768112182615,0,0,0,1,1776.807275056839,go2500_nogo2700,1,SRCF014,-1.4395314709384563,30.23255813953488,TRAINING,0,12,12,1,18
44,GO,,0,1,0,0,1806.2769780159,go2500_nogo2700,1,SRCF014,-1.4877545444943785,29.545454545454547,TRAINING,0,12,13,1,18
45,GO,0.0,1,0,0,0,1821.636831998825,go2500_nogo2700,1,SRCF014,-1.4395314709384563,31.11111111111111,TRAINING,0,13,13,1,18
46,GO,0.4225702285766601,1,0,0,0,1850.606533050537,go2500_nogo2700,1,SRCF014,-1.39475529424294,32.608695652173914,TRAINING,0,14,13,1,18
47,GO,0.2985131740570068,1,0,0,0,1879.6562900543213,go2500_nogo2700,1,SRCF014,-1.3529881030234405,34.04255319148936,TRAINING,0,15,13,1,18
48,GO,1.2724828720092771,1,0,0,0,1935.3457720279691,go2500_nogo2700,1,SRCF014,-1.313870124083382,35.41666666666667,TRAINING,0,16,13,1,18
49,GO,0.2320208549499511,1,0,0,0,2024.125174999237,go2500_nogo2700,1,SRCF014,-1.2771020982971706,36.734693877551024,TRAINING,0,17,13,1,18
50,NOGO,1.538330078125,0,0,0,1,2079.3144340515137,go2500_nogo2700,1,SRCF014,-1.3028044200442372,36.0,TRAINING,0,17,13,1,19
51,GO,0.944167137145996,1,0,0,0,2129.0539889335632,go2500_nogo2700,1,SRCF014,-1.2681347083912107,37.254901960784316,TRAINING,0,18,13,1,19
52,NOGO,,0,0,1,0,2143.934155941009,go2500_nogo2700,1,SRCF014,-1.0103149659278898,38.46153846153847,TRAINING,0,18,13,2,19
53,GO,0.6092498302459717,1,0,0,0,2225.473084926605,go2500_nogo2700,1,SRCF014,-0.97752993264297,39.62264150943396,TRAINING,0,19,13,2,19
54,GO,0.0,1,0,0,0,2262.582757949829,go2500_nogo2700,1,SRCF014,-0.9464466498207493,40.74074074074074,TRAINING,0,20,13,2,19
55,GO,0.4824178218841553,1,0,0,0,2374.831710100174,go2500_nogo2700,1,SRCF014,-0.9169072790988082,41.81818181818181,TRAINING,0,21,13,2,19
56,NOGO,1.343367099761963,0,0,0,1,2545.220139026642,go2500_nogo2700,1,SRCF014,-0.9429877908452968,41.07142857142857,TRAINING,0,21,13,2,20
57,NOGO,0.5315701961517334,0,0,0,1,2577.989837884903,go2500_nogo2700,1,SRCF014,-0.9676547899397028,40.35087719298245,TRAINING,0,21,13,2,21
58,NOGO,0.4418799877166748,0,0,0,1,2627.1293189525604,go2500_nogo2700,1,SRCF014,-0.9910447944212064,39.6551724137931,TRAINING,0,21,13,2,22
59,NOGO,0.3726520538330078,0,0,0,1,2692.5187499523163,go2500_nogo2700,1,SRCF014,-1.0132759009800927,38.983050847457626,TRAINING,0,21,13,2,23
60,GO,,0,1,0,0,2731.4283878803253,go2500_nogo2700,1,SRCF014,-1.0576190254421272,38.333333333333336,TRAINING,0,21,14,2,23
61,NOGO,0.0832281112670898,0,0,0,1,2756.548182964325,go2500_nogo2700,1,SRCF014,-1.0787940422316185,37.704918032786885,TRAINING,0,21,14,2,24
62,GO,0.2912459373474121,1,0,0,0,2790.3478310108185,go2500_nogo2700,1,SRCF014,-1.050566201032941,38.70967741935484,TRAINING,0,22,14,2,24
63,GO,,0,1,0,0,2821.0975959300995,go2500_nogo2700,1,SRCF014,-1.0919938346216056,38.095238095238095,TRAINING,0,22,15,2,24
64,NOGO,0.3400008678436279,0,0,0,1,3330.222887992859,go2500_nogo2700,1,SRCF014,-1.1122027799052672,37.5,TRAINING,0,22,15,2,25
65,GO,0.319180965423584,1,0,0,0,3525.741131067276,go2500_nogo2700,1,SRCF014,-1.0851770329455692,38.46153846153847,TRAINING,0,23,15,2,25
66,NOGO,1.208240985870361,0,0,0,1,3611.790412902832,go2500_nogo2700,1,SRCF014,-1.1044991469392587,37.878787878787875,TRAINING,0,23,15,2,26
67,NOGO,0.5115208625793457,0,0,0,1,3654.9299609661102,go2500_nogo2700,1,SRCF014,-1.1230045258695678,37.3134328358209,TRAINING,0,23,15,2,27
68,GO,0.0,1,0,0,0,3772.478862047195,go2500_nogo2700,1,SRCF014,-1.0971532522194725,38.23529411764706,TRAINING,0,24,15,2,27
69,NOGO,1.363682985305786,0,0,0,1,3849.54825592041,go2500_nogo2700,1,SRCF014,-1.1149041862494111,37.68115942028986,TRAINING,0,24,15,2,28
70,GO,0.2225029468536377,1,0,0,0,3930.287339925766,go2500_nogo2700,1,SRCF014,-1.0901356357483212,38.57142857142858,TRAINING,0,25,15,2,28
71,GO,0.7554950714111328,1,0,0,0,4290.334089994431,go2500_nogo2700,1,SRCF014,-1.0663682535417625,39.436619718309856,TRAINING,0,26,15,2,28
72,NOGO,0.8895771503448486,0,0,0,1,4342.193608999252,go2500_nogo2700,1,SRCF014,-1.0834203304074528,38.88888888888889,TRAINING,0,26,15,2,29
73,NOGO,0.6380589008331299,0,0,0,1,4375.203346967697,go2500_nogo2700,1,SRCF014,-1.099823352097565,38.35616438356164,TRAINING,0,26,15,2,30
74,NOGO,,0,0,1,0,4408.802989959717,go2500_nogo2700,1,SRCF014,-0.9305924372953337,39.189189189189186,TRAINING,0,26,15,3,30
75,GO,0.469545841217041,1,0,0,0,4423.172918081284,go2500_nogo2700,1,SRCF014,-0.9077534102495632,40.0,TRAINING,0,27,15,3,30
76,GO,,0,1,0,0,4542.121836900711,go2500_nogo2700,1,SRCF014,-0.9463298809197727,39.473684210526315,TRAINING,0,27,16,3,30
77,GO,,0,1,0,0,4646.880832910538,go2500_nogo2700,1,SRCF014,-0.9827530978216397,38.961038961038966,TRAINING,0,27,17,3,30
78,NOGO,0.9654600620269777,0,0,0,1,4693.150486946106,go2500_nogo2700,1,SRCF014,-0.9993354184820922,38.46153846153847,TRAINING,0,27,17,3,31
79,NOGO,,0,0,1,0,5140.036345005035,go2500_nogo2700,1,SRCF014,-0.8681332333134997,39.24050632911392,TRAINING,0,27,17,4,31
80,GO,,0,1,0,0,5224.545580863953,go2500_nogo2700,1,SRCF014,-0.902625205723242,38.75,TRAINING,0,27,18,4,31
81,NOGO,1.047070026397705,0,0,0,1,6053.767879962921,go2500_nogo2700,1,SRCF014,-0.919194426482552,38.2716049382716,TRAINING,0,27,18,4,32
82,GO,,0,1,0,0,6108.117318868637,go2500_nogo2700,1,SRCF014,-0.9519441450361564,37.80487804878049,TRAINING,0,27,19,4,32
83,GO,0.0479187965393066,1,0,0,0,6145.107006072998,go2500_nogo2700,1,SRCF014,-0.9297164918065302,38.55421686746988,TRAINING,0,28,19,4,32
84,GO,0.5040481090545654,1,0,0,0,6339.615175962448,go2500_nogo2700,1,SRCF014,-0.9082855341839002,39.285714285714285,TRAINING,0,29,19,4,32
85,GO,1.732820987701416,1,0,0,0,6409.614587068558,go2500_nogo2700,1,SRCF014,-0.8875995666878638,40.0,TRAINING,0,30,19,4,32
86,NOGO,,0,0,1,0,6690.6420378685,go2500_nogo2700,1,SRCF014,-0.7799578826349773,40.69767441860465,TRAINING,0,30,19,5,32
87,NOGO,,0,0,1,0,6727.641680955887,go2500_nogo2700,1,SRCF014,-0.6881025316542468,41.37931034482759,TRAINING,0,30,19,6,32
88,GO,1.0477969646453855,1,0,0,0,6750.301343917847,go2500_nogo2700,1,SRCF014,-0.668114655636034,42.04545454545455,TRAINING,0,31,19,6,32
89,GO,1.819627046585083,1,0,0,0,6828.860594034195,go2500_nogo2700,1,SRCF014,-0.648782202137326,42.69662921348314,TRAINING,0,32,19,6,32
90,GO,,0,1,0,0,6872.870254993439,go2500_nogo2700,1,SRCF014,-0.6797326898217146,42.22222222222222,TRAINING,0,32,20,6,32
91,GO,0.2908251285552978,1,0,0,0,6908.059952020645,go2500_nogo2700,1,SRCF014,-0.6609679084110995,42.857142857142854,TRAINING,0,33,20,6,32
92,NOGO,0.5221269130706787,0,0,0,1,6978.829361915588,go2500_nogo2700,1,SRCF014,-0.6777813027557235,42.391304347826086,TRAINING,0,33,20,6,33
93,NOGO,,0,0,1,0,7006.929118871689,go2500_nogo2700,1,SRCF014,-0.5978136859089667,43.01075268817204,TRAINING,0,33,20,7,33
94,NOGO,1.6340949535369873,0,0,0,1,7032.798800945282,go2500_nogo2700,1,SRCF014,-0.6143693186777773,42.5531914893617,TRAINING,0,33,20,7,34
95,GO,,0,1,0,0,7061.328533887863,go2500_nogo2700,1,SRCF014,-0.6438725631628035,42.10526315789473,TRAINING,0,33,21,7,34
96,GO,0.3288421630859375,1,0,0,0,7317.346158027649,go2500_nogo2700,1,SRCF014,-0.6256439758797329,42.70833333333333,TRAINING,0,34,21,7,34
97,GO,,0,1,0,0,7351.815798997879,go2500_nogo2700,1,SRCF014,-0.6538288509634262,42.2680412371134,TRAINING,0,34,22,7,34
98,NOGO,,0,0,1,0,7435.555048942566,go2500_nogo2700,1,SRCF014,-0.5829631554871051,42.857142857142854,TRAINING,0,34,22,8,34
99,GO,,0,1,0,0,8537.124907970428,go2500_nogo2700,1,SRCF014,-0.6099760764601092,42.42424242424242,TRAINING,0,34,23,8,34
100,NOGO,,0,0,1,0,8629.72412610054,go2500_nogo2700,1,SRCF014,-0.5461029584852519,43.0,TRAINING,0,34,23,9,34
101,GO,1.4611151218414309,1,0,0,0,8659.223891973495,go2500_nogo2700,1,SRCF014,-0.5283475267551985,43.56435643564357,TRAINING,0,35,23,9,34
102,NOGO,1.267699956893921,0,0,0,1,8686.68364405632,go2500_nogo2700,1,SRCF014,-0.5448352518973074,43.13725490196079,TRAINING,0,35,23,9,35
103,NOGO,1.1689610481262207,0,0,0,1,8819.292442083359,go2500_nogo2700,1,SRCF014,-0.56081288319399,42.71844660194174,TRAINING,0,35,23,9,36
104,GO,,0,1,0,0,8853.462150096893,go2500_nogo2700,1,SRCF014,-0.586715156902982,42.30769230769231,TRAINING,0,35,24,9,36
105,GO,1.229344129562378,1,0,0,0,8942.371361017227,go2500_nogo2700,1,SRCF014,-0.5694433902355135,42.857142857142854,TRAINING,0,36,24,9,36
106,GO,0.2624390125274658,1,0,0,0,9039.640286922457,go2500_nogo2700,1,SRCF014,-0.5526577714760019,43.39622641509434,TRAINING,0,37,24,9,36
107,NOGO,0.6057748794555664,0,0,0,1,9152.819209098816,go2500_nogo2700,1,SRCF014,-0.5681537972990112,42.99065420560748,TRAINING,0,37,24,9,37
108,GO,1.4123659133911133,1,0,0,0,9203.71874499321,go2500_nogo2700,1,SRCF014,-0.5518293981164928,43.51851851851852,TRAINING,0,38,24,9,37
109,GO,0.2409718036651611,1,0,0,0,9449.446520090103,go2500_nogo2700,1,SRCF014,-0.5359431322485142,44.03669724770643,TRAINING,0,39,24,9,37
110,NOGO,0.6951999664306641,0,0,0,1,9473.616218090056,go2500_nogo2700,1,SRCF014,-0.5509837787612293,43.63636363636363,TRAINING,0,39,24,9,38
111,NOGO,0.6713120937347412,0,0,0,1,9498.475944042206,go2500_nogo2700,1,SRCF014,-0.5655932404365505,43.24324324324324,TRAINING,0,39,24,9,39
112,GO,1.2304449081420898,1,0,0,0,9523.265677928925,go2500_nogo2700,1,SRCF014,-0.5501236868379787,43.75,TRAINING,0,40,24,9,39
113,NOGO,0.8158619403839111,0,0,0,1,9557.855402946472,go2500_nogo2700,1,SRCF014,-0.5643243285221704,43.36283185840708,TRAINING,0,40,24,9,40
114,GO,0.2462849617004394,1,0,0,0,9587.905117034912,go2500_nogo2700,1,SRCF014,-0.5492515752941375,43.859649122807014,TRAINING,0,41,24,9,40
115,GO,,0,1,0,0,9610.055070877075,go2500_nogo2700,1,SRCF014,-0.5739831066395573,43.47826086956522,TRAINING,0,41,25,9,40
116,NOGO,0.4169740676879883,0,0,0,1,9666.004446983336,go2500_nogo2700,1,SRCF014,-0.5877956412617356,43.103448275862064,TRAINING,0,41,25,9,41
117,GO,,0,1,0,0,9688.904185056686,go2500_nogo2700,1,SRCF014,-0.6116231415960833,42.73504273504273,TRAINING,0,41,26,9,41
118,NOGO,0.5782608985900879,0,0,0,1,9703.494081020355,go2500_nogo2700,1,SRCF014,-0.6250667869511799,42.3728813559322,TRAINING,0,41,26,9,42
119,GO,0.3306570053100586,1,0,0,0,9744.283658027647,go2500_nogo2700,1,SRCF014,-0.6103122572925308,42.857142857142854,TRAINING,0,42,26,9,42
120,NOGO,1.0691449642181396,0,0,0,1,9762.88349890709,go2500_nogo2700,1,SRCF014,-0.6234048747765315,42.5,TRAINING,0,42,26,9,43
121,GO,1.252669095993042,1,0,0,0,9795.823200941086,go2500_nogo2700,1,SRCF014,-0.6090102049647256,42.97520661157025,TRAINING,0,43,26,9,43
122,NOGO,,0,0,1,0,9848.492796897888,go2500_nogo2700,1,SRCF014,-0.5523992326263933,43.44262295081967,TRAINING,0,43,26,10,43
123,NOGO,1.5468621253967283,0,0,0,1,9863.642899990082,go2500_nogo2700,1,SRCF014,-0.5653162543975286,43.08943089430895,TRAINING,0,43,26,10,44
124,NOGO,1.0823020935058594,0,0,0,1,9889.462337970734,go2500_nogo2700,1,SRCF014,-0.577911671471097,42.74193548387097,TRAINING,0,43,26,10,45
125,NOGO,0.4010889530181885,0,0,0,1,9927.692029953005,go2500_nogo2700,1,SRCF014,-0.590200020119455,42.4,TRAINING,0,43,26,10,46
126,NOGO,,0,0,1,0,10135.41010093689,go2500_nogo2700,1,SRCF014,-0.5385608736803181,42.857142857142854,TRAINING,0,43,26,11,46
127,NOGO,1.2340569496154783,0,0,0,1,10181.499602079391,go2500_nogo2700,1,SRCF014,-0.5506898913262233,42.51968503937008,TRAINING,0,43,26,11,47
128,GO,0.4646220207214355,1,0,0,0,10225.149218082428,go2500_nogo2700,1,SRCF014,-0.5366390662538862,42.96875,TRAINING,0,44,26,11,47
129,NOGO,0.2379028797149658,0,0,0,1,10254.209275960922,go2500_nogo2700,1,SRCF014,-0.5484852595698428,42.63565891472868,TRAINING,0,44,26,11,48
130,GO,0.9217910766601562,1,0,0,0,10287.208702087402,go2500_nogo2700,1,SRCF014,-0.5347632928367565,43.07692307692308,TRAINING,0,45,26,11,48
131,GO,,0,1,0,0,10358.69800901413,go2500_nogo2700,1,SRCF014,-0.5576440694757088,42.74809160305343,TRAINING,0,45,27,11,48
132,NOGO,0.729403018951416,0,0,0,1,10373.39792895317,go2500_nogo2700,1,SRCF014,-0.5692194247944424,42.42424242424242,TRAINING,0,45,27,11,49
133,NOGO,1.0169260501861572,0,0,0,1,10976.222406864166,go2500_nogo2700,1,SRCF014,-0.5805352020038232,42.10526315789473,TRAINING,0,45,27,11,50
134,GO,0.5614058971405029,1,0,0,0,11020.802061080933,go2500_nogo2700,1,SRCF014,-0.5671006146429056,42.53731343283582,TRAINING,0,46,27,11,50
135,GO,,0,1,0,0,11061.921750068665,go2500_nogo2700,1,SRCF014,-0.5891813166186759,42.22222222222222,TRAINING,0,46,28,11,50
136,NOGO,0.0,0,0,0,1,11147.340805053713,go2500_nogo2700,1,SRCF014,-0.600248105962506,41.911764705882355,TRAINING,0,46,28,11,51
137,NOGO,1.1517400741577148,0,0,0,1,11178.33051609993,go2500_nogo2700,1,SRCF014,-0.6110758794337153,41.605839416058394,TRAINING,0,46,28,11,52
138,NOGO,,0,0,1,0,11204.500284910202,go2500_nogo2700,1,SRCF014,-0.5639429851894887,42.028985507246375,TRAINING,0,46,28,12,52
139,NOGO,1.612534999847412,0,0,0,1,11767.545114040377,go2500_nogo2700,1,SRCF014,-0.5746510768175415,41.726618705035975,TRAINING,0,46,28,12,53
140,NOGO,1.3431580066680908,0,0,0,1,11792.234910011292,go2500_nogo2700,1,SRCF014,-0.5851368595555837,41.42857142857143,TRAINING,0,46,28,12,54
141,GO,,0,1,0,0,11816.464629888536,go2500_nogo2700,1,SRCF014,-0.6064942143458499,41.13475177304964,TRAINING,0,46,29,12,54
142,GO,,0,1,0,0,11832.024431943892,go2500_nogo2700,1,SRCF014,-0.6271728838510466,40.845070422535215,TRAINING,0,46,30,12,54
143,GO,,0,1,0,0,11848.87430691719,go2500_nogo2700,1,SRCF014,-0.6472134698443499,40.55944055944056,TRAINING,0,46,31,12,54
144,GO,,0,1,0,0,11866.414139986038,go2500_nogo2700,1,SRCF014,-0.6666529981363286,40.27777777777778,TRAINING,0,46,32,12,54
145,NOGO,0.420767068862915,0,0,0,1,11889.82392001152,go2500_nogo2700,1,SRCF014,-0.6769248800043498,40.0,TRAINING,0,46,32,12,55
146,NOGO,0.1681580543518066,0,0,0,1,11955.9233648777,go2500_nogo2700,1,SRCF014,-0.686990813366896,39.726027397260275,TRAINING,0,46,32,12,56
147,GO,,0,1,0,0,11982.923047065737,go2500_nogo2700,1,SRCF014,-0.7058631471703398,39.455782312925166,TRAINING,0,46,33,12,56
148,NOGO,,0,0,1,0,11997.302890062332,go2500_nogo2700,1,SRCF014,-0.6623233786805062,39.86486486486486,TRAINING,0,46,33,13,56
149,NOGO,,0,0,1,0,12079.242196083069,go2500_nogo2700,1,SRCF014,-0.6215308124245121,40.26845637583892,TRAINING,0,46,33,14,56
150,NOGO,0.9526550769805908,0,0,0,1,13901.105341911316,go2500_nogo2700,1,SRCF014,-0.6315782335261638,40.0,TRAINING,0,46,33,14,57
151,GO,0.2384669780731201,1,0,0,0,13931.784978866575,go2500_nogo2700,1,SRCF014,-0.6183257784740042,40.397350993377486,TRAINING,0,47,33,14,57
152,NOGO,,0,0,1,0,13997.944379091265,go2500_nogo2700,1,SRCF014,-0.5800222523195736,40.78947368421053,TRAINING,0,47,33,15,57
153,GO,0.9194221496582032,1,0,0,0,14031.914202928543,go2500_nogo2700,1,SRCF014,-0.567055983312704,41.17647058823529,TRAINING,0,48,33,15,57
154,NOGO,,0,0,1,0,14069.163743019104,go2500_nogo2700,1,SRCF014,-0.5308800790102114,41.55844155844156,TRAINING,0,48,33,16,57
155,NOGO,1.2524981498718262,0,0,0,1,14083.573606014252,go2500_nogo2700,1,SRCF014,-0.5408821744144469,41.29032258064516,TRAINING,0,48,33,16,58
156,GO,0.890326976776123,1,0,0,0,14109.18337392807,go2500_nogo2700,1,SRCF014,-0.5281907554443186,41.66666666666667,TRAINING,0,49,33,16,58
157,NOGO,1.0657570362091064,0,0,0,1,14235.212346076964,go2500_nogo2700,1,SRCF014,-0.5380044280093514,41.40127388535032,TRAINING,0,49,33,16,59
158,GO,1.2931721210479736,1,0,0,0,14267.642011880876,go2500_nogo2700,1,SRCF014,-0.5255771745426825,41.77215189873418,TRAINING,0,50,33,16,59
159,NOGO,0.1051621437072753,0,0,0,1,14287.681900024414,go2500_nogo2700,1,SRCF014,-0.5352088955323395,41.509433962264154,TRAINING,0,50,33,16,60
160,GO,,0,1,0,0,7.086241006851196,go2500_nogo2700,2,SRCF014,-0.5534885435136049,41.25,TRAINING,0,50,34,16,60
161,GO,1.1557419300079346,1,0,0,0,20.495931148529053,go2500_nogo2700,2,SRCF014,-0.5413001025644122,41.61490683229814,TRAINING,0,51,34,16,60
162,GO,1.6678829193115234,1,0,0,0,32.34586811065674,go2500_nogo2700,2,SRCF014,-0.5293558423517528,41.9753086419753,TRAINING,0,52,34,16,60
163,NOGO,1.0763800144195557,0,0,0,1,63.57562613487244,go2500_nogo2700,2,SRCF014,-0.5388117638903283,41.717791411042946,TRAINING,0,52,34,16,61
164,GO,0.1885371208190918,1,0,0,0,94.15533113479614,go2500_nogo2700,2,SRCF014,-0.5271027108281496,42.073170731707314,TRAINING,0,53,34,16,61
165,GO,,0,1,0,0,105.3452081680298,go2500_nogo2700,2,SRCF014,-0.544838061699382,41.81818181818181,TRAINING,0,53,35,16,61
166,GO,1.3575680255889893,1,0,0,0,117.53504920005798,go2500_nogo2700,2,SRCF014,-0.5333407995373369,42.168674698795186,TRAINING,0,54,35,16,61
167,NOGO,0.4021680355072021,0,0,0,1,161.744647026062,go2500_nogo2700,2,SRCF014,-0.5426267750022988,41.91616766467065,TRAINING,0,54,35,16,62
168,GO,0.2102079391479492,1,0,0,0,185.32445311546329,go2500_nogo2700,2,SRCF014,-0.5313478701677186,42.26190476190476,TRAINING,0,55,35,16,62
169,GO,0.6271040439605713,1,0,0,0,213.924173116684,go2500_nogo2700,2,SRCF014,-0.5202797134301702,42.60355029585799,TRAINING,0,56,35,16,62
170,GO,0.6207799911499023,1,0,0,0,238.81399416923523,go2500_nogo2700,2,SRCF014,-0.5094150804172062,42.94117647058823,TRAINING,0,57,35,16,62
171,NOGO,0.8453478813171387,0,0,0,1,259.7637801170349,go2500_nogo2700,2,SRCF014,-0.5185366832385481,42.69005847953216,TRAINING,0,57,35,16,63
172,GO,0.1900660991668701,1,0,0,0,283.003534078598,go2500_nogo2700,2,SRCF014,-0.5078687089625686,43.02325581395349,TRAINING,0,58,35,16,63
173,GO,0.7148821353912354,1,0,0,0,311.1133301258087,go2500_nogo2700,2,SRCF014,-0.49739086442609703,43.35260115606936,TRAINING,0,59,35,16,63
174,GO,0.311967134475708,1,0,0,0,341.363028049469,go2500_nogo2700,2,SRCF014,-0.4870969351044757,43.67816091954023,TRAINING,0,60,35,16,63
175,NOGO,0.5999269485473633,0,0,0,1,361.5730080604553,go2500_nogo2700,2,SRCF014,-0.49605947611735646,43.42857142857143,TRAINING,0,60,35,16,64
176,NOGO,0.558495044708252,0,0,0,1,387.7725510597229,go2500_nogo2700,2,SRCF014,-0.5048680195991823,43.18181818181818,TRAINING,0,60,35,16,65
177,NOGO,0.1804358959197998,0,0,0,1,414.4723629951477,go2500_nogo2700,2,SRCF014,-0.5135273981086503,42.93785310734463,TRAINING,0,60,35,16,66
178,NOGO,1.9467570781707764,0,0,0,1,441.1120760440826,go2500_nogo2700,2,SRCF014,-0.5220422262322113,42.69662921348314,TRAINING,0,60,35,16,67
179,NOGO,1.4707989692687988,0,0,0,1,472.4918310642242,go2500_nogo2700,2,SRCF014,-0.5304169133327559,42.45810055865922,TRAINING,0,60,35,16,68
180,NOGO,0.4678030014038086,0,0,0,1,512.2213931083679,go2500_nogo2700,2,SRCF014,-0.5386556753858937,42.22222222222222,TRAINING,0,60,35,16,69
181,GO,0.3292620182037353,1,0,0,0,557.7310199737549,go2500_nogo2700,2,SRCF014,-0.5285397414088169,42.5414364640884,TRAINING,0,61,35,16,69
182,NOGO,0.8222649097442627,0,0,0,1,611.5605139732361,go2500_nogo2700,2,SRCF014,-0.5366466120037151,42.30769230769231,TRAINING,0,61,35,16,70
183,GO,,0,1,0,0,835.0684230327606,go2500_nogo2700,2,SRCF014,-0.5537936237178418,42.07650273224044,TRAINING,0,61,36,16,70
184,NOGO,,0,0,1,0,848.6182451248169,go2500_nogo2700,2,SRCF014,-0.5203130924998461,42.391304347826086,TRAINING,0,61,36,17,70
185,NOGO,1.5564069747924805,0,0,0,1,870.6380481719971,go2500_nogo2700,2,SRCF014,-0.5283490139821253,42.16216216216216,TRAINING,0,61,36,17,71
186,GO,,0,1,0,0,901.4278240203856,go2500_nogo2700,2,SRCF014,-0.5450573030139194,41.935483870967744,TRAINING,0,61,37,17,71
187,GO,1.987782001495361,1,0,0,0,918.3576431274414,go2500_nogo2700,2,SRCF014,-0.5350837447444783,42.24598930481284,TRAINING,0,62,37,17,71
188,GO,0.0264739990234375,1,0,0,0,991.5169560909272,go2500_nogo2700,2,SRCF014,-0.5252768311223346,42.5531914893617,TRAINING,0,63,37,17,71
189,GO,1.2042880058288574,1,0,0,0,1064.206288099289,go2500_nogo2700,2,SRCF014,-0.5156314519046464,42.857142857142854,TRAINING,0,64,37,17,71
190,GO,1.180176019668579,1,0,0,0,1156.8757190704346,go2500_nogo2700,2,SRCF014,-0.5061427243325791,43.15789473684211,TRAINING,0,65,37,17,71
191,NOGO,1.890399932861328,0,0,0,1,1350.283655166626,go2500_nogo2700,2,SRCF014,-0.514053735797898,42.93193717277487,TRAINING,0,65,37,17,72
192,GO,,0,1,0,0,1414.1932611465454,go2500_nogo2700,2,SRCF014,-0.530290061927857,42.70833333333333,TRAINING,0,65,38,17,72
193,NOGO,0.7981619834899902,0,0,0,1,1442.822921037674,go2500_nogo2700,2,SRCF014,-0.5380797150425708,42.487046632124354,TRAINING,0,65,38,17,73
194,GO,1.5958359241485596,1,0,0,0,1496.9923281669617,go2500_nogo2700,2,SRCF014,-0.5287289462010907,42.78350515463917,TRAINING,0,66,38,17,73
195,NOGO,1.2647109031677246,0,0,0,1,1540.5318851470947,go2500_nogo2700,2,SRCF014,-0.5364006473019763,42.56410256410256,TRAINING,0,66,38,17,74
196,NOGO,,0,0,1,0,1596.141409158707,go2500_nogo2700,2,SRCF014,-0.5047734050937023,42.857142857142854,TRAINING,0,66,38,18,74
197,GO,1.1636309623718262,1,0,0,0,1722.3302450180054,go2500_nogo2700,2,SRCF014,-0.4955700273784769,43.14720812182741,TRAINING,0,67,38,18,74
198,NOGO,1.7420899868011477,0,0,0,1,1767.989856004715,go2500_nogo2700,2,SRCF014,-0.5031780447658908,42.92929292929293,TRAINING,0,67,38,18,75
199,GO,0.0530440807342529,1,0,0,0,1827.0093050003047,go2500_nogo2700,2,SRCF014,-0.4941177936535731,43.21608040201005,TRAINING,0,68,38,18,75
200,NOGO,,0,0,1,0,1879.48881316185,go2500_nogo2700,2,SRCF014,-0.4640093248066365,43.5,TRAINING,0,68,38,19,75
201,NOGO,1.7059690952301023,0,0,0,1,2101.4268209934235,go2500_nogo2700,2,SRCF014,-0.4715524222900608,43.28358208955223,TRAINING,0,68,38,19,76
202,GO,,0,1,0,0,2126.8465189933777,go2500_nogo2700,2,SRCF014,-0.48735538000365797,43.06930693069307,TRAINING,0,68,39,19,76
203,GO,0.6539580821990967,1,0,0,0,2163.6761980056763,go2500_nogo2700,2,SRCF014,-0.4784207108847689,43.34975369458128,TRAINING,0,69,39,19,76
204,NOGO,,0,0,1,0,2380.8942131996155,go2500_nogo2700,2,SRCF014,-0.4496895169812676,43.627450980392155,TRAINING,0,69,39,20,76
205,GO,0.9429531097412108,1,0,0,0,2600.8821251392365,go2500_nogo2700,2,SRCF014,-0.4408898699620269,43.90243902439025,TRAINING,0,70,39,20,76
206,NOGO,1.4014310836791992,0,0,0,1,2701.621203184128,go2500_nogo2700,2,SRCF014,-0.4483671638748144,43.689320388349515,TRAINING,0,70,39,20,77
207,NOGO,1.0418519973754885,0,0,0,1,2751.7107610702515,go2500_nogo2700,2,SRCF014,-0.4557375465087337,43.47826086956522,TRAINING,0,70,39,20,78
208,GO,,0,1,0,0,2793.5203759670258,go2500_nogo2700,2,SRCF014,-0.4711422871288064,43.269230769230774,TRAINING,0,70,40,20,78
209,GO,,0,1,0,0,2833.3900260925293,go2500_nogo2700,2,SRCF014,-0.4861925321812687,43.0622009569378,TRAINING,0,70,41,20,78
210,NOGO,1.4650609493255615,0,0,0,1,2852.309849023819,go2500_nogo2700,2,SRCF014,-0.49345880167122136,42.857142857142854,TRAINING,0,70,41,20,79
211,NOGO,,0,0,1,0,3041.178146123886,go2500_nogo2700,2,SRCF014,-0.4660632802262594,43.127962085308056,TRAINING,0,70,41,21,79
212,GO,,0,1,0,0,3055.688029050827,go2500_nogo2700,2,SRCF014,-0.4807746107565656,42.924528301886795,TRAINING,0,70,42,21,79
213,GO,,0,1,0,0,3078.0677461624146,go2500_nogo2700,2,SRCF014,-0.4951615880340193,42.72300469483568,TRAINING,0,70,43,21,79
214,NOGO,,0,0,1,0,3505.8237810134888,go2500_nogo2700,2,SRCF014,-0.4688715610158995,42.99065420560748,TRAINING,0,70,43,22,79
215,NOGO,,0,0,1,0,3684.442164182663,go2500_nogo2700,2,SRCF014,-0.44359903438599074,43.25581395348837,TRAINING,0,70,43,23,79
216,NOGO,,0,0,1,0,3695.952059030533,go2500_nogo2700,2,SRCF014,-0.419266416404898,43.51851851851852,TRAINING,0,70,43,24,79
217,GO,0.9770309925079346,1,0,0,0,4529.134275197983,go2500_nogo2700,2,SRCF014,-0.41055136595893515,43.77880184331797,TRAINING,0,71,43,24,79
218,NOGO,,0,0,1,0,4567.973963022232,go2500_nogo2700,2,SRCF014,-0.38708986354080266,44.03669724770643,TRAINING,0,71,43,25,79
219,GO,,0,1,0,0,5461.145688056946,go2500_nogo2700,2,SRCF014,-0.4011562287515119,43.83561643835616,TRAINING,0,71,44,25,79
220,NOGO,1.4746980667114258,0,0,0,1,5953.020967006683,go2500_nogo2700,2,SRCF014,-0.40849772610649715,43.63636363636363,TRAINING,0,71,44,25,80
221,NOGO,,0,0,1,0,7784.534022092819,go2500_nogo2700,2,SRCF014,-0.3858753910815349,43.89140271493213,TRAINING,0,71,44,26,80
222,NOGO,,0,0,1,0,7819.993764162064,go2500_nogo2700,2,SRCF014,-0.3640063325247317,44.14414414414414,TRAINING,0,71,44,27,80
223,NOGO,,0,0,1,0,7879.593214988708,go2500_nogo2700,2,SRCF014,-0.34284133554545804,44.39461883408072,TRAINING,0,71,44,28,80
224,GO,,0,1,0,0,8404.118265151978,go2500_nogo2700,2,SRCF014,-0.3566103945777796,44.19642857142857,TRAINING,0,71,45,28,80
225,NOGO,1.7120139598846436,0,0,0,1,8488.747481107712,go2500_nogo2700,2,SRCF014,-0.3639344687261697,44.0,TRAINING,0,71,45,28,81
226,GO,1.8001940250396729,1,0,0,0,8537.267048120499,go2500_nogo2700,2,SRCF014,-0.35532728481807185,44.24778761061947,TRAINING,0,72,45,28,81
227,GO,,0,1,0,0,9854.164819002151,go2500_nogo2700,2,SRCF014,-0.36880222395143103,44.052863436123346,TRAINING,0,72,46,28,81
228,NOGO,,0,0,1,0,10478.329028129578,go2500_nogo2700,2,SRCF014,-0.3483214297574283,44.29824561403509,TRAINING,0,72,46,29,81
229,NOGO,,0,0,1,0,11349.351003170012,go2500_nogo2700,2,SRCF014,-0.3284587041386656,44.54148471615721,TRAINING,0,72,46,30,81
230,NOGO,,0,0,1,0,11588.068763017654,go2500_nogo2700,2,SRCF014,-0.309177564629857,44.78260869565218,TRAINING,0,72,46,31,81
231,NOGO,,0,0,1,0,10.233421087265016,go2500_nogo2700,3,SRCF014,-0.29044474795429565,45.02164502164502,TRAINING,0,72,46,32,81
232,GO,,0,1,0,0,23.85316801071167,go2500_nogo2700,3,SRCF014,-0.3036461629656191,44.827586206896555,TRAINING,0,72,47,32,81
233,GO,0.9863669872283936,1,0,0,0,38.55307698249817,go2500_nogo2700,3,SRCF014,-0.29514534315170005,45.06437768240343,TRAINING,0,73,47,32,81
234,GO,,0,1,0,0,59.222912073135376,go2500_nogo2700,3,SRCF014,-0.30807599564406024,44.871794871794876,TRAINING,0,73,48,32,81
235,GO,,0,1,0,0,75.58274102210999,go2500_nogo2700,3,SRCF014,-0.32075414905256533,44.680851063829785,TRAINING,0,73,49,32,81
236,NOGO,,0,0,1,0,88.17261004447937,go2500_nogo2700,3,SRCF014,-0.30253923682888667,44.91525423728814,TRAINING,0,73,49,33,81
237,GO,0.8377110958099365,1,0,0,0,104.6724898815155,go2500_nogo2700,3,SRCF014,-0.29414317023327896,45.14767932489451,TRAINING,0,74,49,33,81
238,NOGO,,0,0,1,0,144.69208598136902,go2500_nogo2700,3,SRCF014,-0.27641826808945946,45.378151260504204,TRAINING,0,74,49,34,81
239,NOGO,1.5563459396362305,0,0,0,1,168.1818709373474,go2500_nogo2700,3,SRCF014,-0.28377258199051447,45.18828451882845,TRAINING,0,74,49,34,82
240,NOGO,1.9836280345916748,0,0,0,1,263.5310609340668,go2500_nogo2700,3,SRCF014,-0.2910307828906198,45.0,TRAINING,0,74,49,34,83
241,NOGO,,0,0,1,0,299.16103887557983,go2500_nogo2700,3,SRCF014,-0.2738053987576792,45.22821576763486,TRAINING,0,74,49,35,83
242,NOGO,,0,0,1,0,322.4504990577698,go2500_nogo2700,3,SRCF014,-0.2570189041363462,45.45454545454545,TRAINING,0,74,49,36,83
243,GO,,0,1,0,0,336.07030510902405,go2500_nogo2700,3,SRCF014,-0.2694469940609489,45.267489711934154,TRAINING,0,74,50,36,83
244,NOGO,,0,0,1,0,352.7901449203491,go2500_nogo2700,3,SRCF014,-0.25307765132835597,45.49180327868852,TRAINING,0,74,50,37,83
245,GO,0.2460289001464843,1,0,0,0,372.879949092865,go2500_nogo2700,3,SRCF014,-0.244791249865071,45.714285714285715,TRAINING,0,75,50,37,83
246,NOGO,1.0901620388031006,0,0,0,1,549.5183730125427,go2500_nogo2700,3,SRCF014,-0.25200558995090355,45.52845528455284,TRAINING,0,75,50,37,84
247,GO,,0,1,0,0,608.8877859115601,go2500_nogo2700,3,SRCF014,-0.2641932588898168,45.34412955465587,TRAINING,0,75,51,37,84
248,NOGO,,0,0,1,0,625.9476690292358,go2500_nogo2700,3,SRCF014,-0.24823591672758347,45.564516129032256,TRAINING,0,75,51,38,84
249,NOGO,0.399972915649414,0,0,0,1,752.1264879703522,go2500_nogo2700,3,SRCF014,-0.2553735716185289,45.38152610441767,TRAINING,0,75,51,38,85
250,NOGO,,0,0,1,0,901.4251708984376,go2500_nogo2700,3,SRCF014,-0.23980803417790206,45.6,TRAINING,0,75,51,39,85
251,GO,,0,1,0,0,1057.9337630271912,go2500_nogo2700,3,SRCF014,-0.2517706716095407,45.41832669322709,TRAINING,0,75,52,39,85
252,GO,,0,1,0,0,1073.623594045639,go2500_nogo2700,3,SRCF014,-0.26351616403169326,45.23809523809524,TRAINING,0,75,53,39,85
253,NOGO,,0,0,1,0,1093.263473033905,go2500_nogo2700,3,SRCF014,-0.24831018137661642,45.45454545454545,TRAINING,0,75,53,40,85
254,GO,0.1908609867095947,1,0,0,0,1411.9504919052124,go2500_nogo2700,3,SRCF014,-0.24011849361985943,45.66929133858268,TRAINING,0,76,53,40,85
255,NOGO,,0,0,1,0,1444.940237045288,go2500_nogo2700,3,SRCF014,-0.22525597372162087,45.88235294117647,TRAINING,0,76,53,41,85
256,NOGO,,0,0,1,0,1476.0699191093445,go2500_nogo2700,3,SRCF014,-0.21072190333788987,46.09375,TRAINING,0,76,53,42,85
257,NOGO,0.509958028793335,0,0,0,1,1696.697962999344,go2500_nogo2700,3,SRCF014,-0.21782278041372005,45.91439688715953,TRAINING,0,76,53,42,86
258,GO,,0,1,0,0,2083.8844339847565,go2500_nogo2700,3,SRCF014,-0.2293531192682216,45.73643410852713,TRAINING,0,76,54,42,86
259,NOGO,0.6890389919281006,0,0,0,1,2258.022779941559,go2500_nogo2700,3,SRCF014,-0.23636656432311665,45.559845559845556,TRAINING,0,76,54,42,87
260,GO,1.4233009815216064,1,0,0,0,2286.592525959015,go2500_nogo2700,3,SRCF014,-0.22827964397349212,45.76923076923077,TRAINING,0,77,54,42,87
261,GO,,0,1,0,0,2409.9615020751958,go2500_nogo2700,3,SRCF014,-0.23960254789670213,45.593869731800766,TRAINING,0,77,55,42,87
262,NOGO,0.0093870162963867,0,0,0,1,2460.3711218833923,go2500_nogo2700,3,SRCF014,-0.2465305380938637,45.41984732824427,TRAINING,0,77,55,42,88
263,GO,,0,1,0,0,2559.560031890869,go2500_nogo2700,3,SRCF014,-0.2576583203388998,45.247148288973385,TRAINING,0,77,56,42,88
264,NOGO,1.3014249801635742,0,0,0,1,2574.7398688793182,go2500_nogo2700,3,SRCF014,-0.2645027679348321,45.07575757575758,TRAINING,0,77,56,42,89
265,GO,0.2112171649932861,1,0,0,0,2647.2292881011963,go2500_nogo2700,3,SRCF014,-0.25651299884668854,45.28301886792453,TRAINING,0,78,56,42,89
266,NOGO,,0,0,1,0,2848.327399969101,go2500_nogo2700,3,SRCF014,-0.24233982254106687,45.48872180451128,TRAINING,0,78,56,43,89
267,GO,1.045176982879639,1,0,0,0,3400.1123809814453,go2500_nogo2700,3,SRCF014,-0.23445468940504402,45.69288389513109,TRAINING,0,79,56,43,89
268,NOGO,0.3868110179901123,0,0,0,1,3460.41175699234,go2500_nogo2700,3,SRCF014,-0.2412291091802816,45.52238805970149,TRAINING,0,79,56,43,90
269,GO,0.0061521530151367,1,0,0,0,3569.590764045716,go2500_nogo2700,3,SRCF014,-0.23344607849347065,45.72490706319702,TRAINING,0,80,56,43,90
270,GO,,0,1,0,0,3686.43963599205,go2500_nogo2700,3,SRCF014,-0.24437077032071972,45.55555555555556,TRAINING,0,80,57,43,90
271,NOGO,0.0437901020050048,0,0,0,1,3710.479510068893,go2500_nogo2700,3,SRCF014,-0.25106529997023364,45.38745387453875,TRAINING,0,80,57,43,91
272,GO,1.6154558658599854,1,0,0,0,3849.428204059601,go2500_nogo2700,3,SRCF014,-0.243376921788975,45.588235294117645,TRAINING,0,81,57,43,91
273,NOGO,1.993429183959961,0,0,0,1,4000.9468228816986,go2500_nogo2700,3,SRCF014,-0.2499932919767314,45.42124542124542,TRAINING,0,81,57,43,92
274,GO,1.1307501792907717,1,0,0,0,4031.6165030002594,go2500_nogo2700,3,SRCF014,-0.24240211054575547,45.62043795620438,TRAINING,0,82,57,43,92
275,NOGO,,0,0,1,0,4077.526098012924,go2500_nogo2700,3,SRCF014,-0.228561308742908,45.81818181818182,TRAINING,0,82,57,44,92
276,GO,1.2967579364776611,1,0,0,0,4103.845855951309,go2500_nogo2700,3,SRCF014,-0.22106505262296444,46.01449275362319,TRAINING,0,83,57,44,92
277,NOGO,,0,0,1,0,4167.69523191452,go2500_nogo2700,3,SRCF014,-0.2075094725245789,46.20938628158845,TRAINING,0,83,57,45,92
278,NOGO,0.9054899215698242,0,0,0,1,4195.575016975403,go2500_nogo2700,3,SRCF014,-0.21407114503640567,46.043165467625904,TRAINING,0,83,57,45,93
279,GO,1.9120218753814695,1,0,0,0,4232.0146379470825,go2500_nogo2700,3,SRCF014,-0.20666762041115697,46.236559139784944,TRAINING,0,84,57,45,93
280,GO,0.9403741359710692,1,0,0,0,4362.973434925079,go2500_nogo2700,3,SRCF014,-0.19935470759129997,46.42857142857143,TRAINING,0,85,57,45,93
281,GO,0.8052310943603516,1,0,0,0,4414.023009061813,go2500_nogo2700,3,SRCF014,-0.1921303577140384,46.619217081850536,TRAINING,0,86,57,45,93
282,NOGO,0.7074689865112305,0,0,0,1,4451.95259809494,go2500_nogo2700,3,SRCF014,-0.19861719286740936,46.45390070921986,TRAINING,0,86,57,45,94
283,NOGO,,0,0,1,0,4489.722222089768,go2500_nogo2700,3,SRCF014,-0.18535575424148804,46.64310954063604,TRAINING,0,86,57,46,94
284,GO,,0,1,0,0,4535.611830949783,go2500_nogo2700,3,SRCF014,-0.1960691271772791,46.478873239436616,TRAINING,0,86,58,46,94
285,NOGO,1.0505719184875488,0,0,0,1,4580.841409921646,go2500_nogo2700,3,SRCF014,-0.20249287039569008,46.31578947368421,TRAINING,0,86,58,46,95
286,NOGO,,0,0,1,0,4608.371253013611,go2500_nogo2700,3,SRCF014,-0.1895033460498038,46.50349650349651,TRAINING,0,86,58,47,95
287,GO,,0,1,0,0,4623.181109905243,go2500_nogo2700,3,SRCF014,-0.20004254419118564,46.34146341463415,TRAINING,0,86,59,47,95
288,GO,0.0011909008026123,1,0,0,0,4639.780881881714,go2500_nogo2700,3,SRCF014,-0.19289457653045608,46.52777777777778,TRAINING,0,87,59,47,95
289,NOGO,,0,0,1,0,4681.390464067459,go2500_nogo2700,3,SRCF014,-0.18015677556605433,46.71280276816609,TRAINING,0,87,59,48,95
290,NOGO,0.7786819934844971,0,0,0,1,4706.050232887268,go2500_nogo2700,3,SRCF014,-0.18652781280226358,46.55172413793103,TRAINING,0,87,59,48,96
291,GO,,0,1,0,0,4734.17994594574,go2500_nogo2700,3,SRCF014,-0.19689355509347636,46.391752577319586,TRAINING,0,87,60,48,96
292,GO,0.0,1,0,0,0,4755.62978887558,go2500_nogo2700,3,SRCF014,-0.18982534388792732,46.57534246575342,TRAINING,0,88,60,48,96
293,GO,1.544347047805786,1,0,0,0,5016.06754899025,go2500_nogo2700,3,SRCF014,-0.18283971643036614,46.75767918088737,TRAINING,0,89,60,48,96
294,GO,,0,1,0,0,5389.563976049423,go2500_nogo2700,3,SRCF014,-0.1930330414243161,46.59863945578231,TRAINING,0,89,61,48,96
295,NOGO,0.0744259357452392,0,0,0,1,5413.683867931366,go2500_nogo2700,3,SRCF014,-0.1993338492662638,46.440677966101696,TRAINING,0,89,61,48,97
296,NOGO,1.2523629665374756,0,0,0,1,5444.293534994125,go2500_nogo2700,3,SRCF014,-0.20556585147394424,46.28378378378378,TRAINING,0,89,61,48,98
297,NOGO,0.8677618503570557,0,0,0,1,5473.513253927231,go2500_nogo2700,3,SRCF014,-0.21173042984373752,46.12794612794613,TRAINING,0,89,61,48,99
298,GO,0.6167318820953369,1,0,0,0,5844.169872999191,go2500_nogo2700,3,SRCF014,-0.20482096559869387,46.308724832214764,TRAINING,0,90,61,48,99
299,NOGO,0.872312068939209,0,0,0,1,6928.699770927429,go2500_nogo2700,3,SRCF014,-0.21091946158610844,46.15384615384615,TRAINING,0,90,61,48,100
300,GO,0.9820361137390136,1,0,0,0,7002.499044895172,go2500_nogo2700,3,SRCF014,-0.20408899798801008,46.33333333333333,TRAINING,0,91,61,48,100
301,GO,1.3083209991455078,1,0,0,0,7052.728635072708,go2500_nogo2700,3,SRCF014,-0.1973358651461845,46.51162790697674,TRAINING,0,92,61,48,100
302,NOGO,0.6223111152648926,0,0,0,1,7081.008353948593,go2500_nogo2700,3,SRCF014,-0.20336958141096217,46.35761589403973,TRAINING,0,92,61,48,101
303,GO,1.9426090717315676,1,0,0,0,7143.517894983292,go2500_nogo2700,3,SRCF014,-0.1966921610575771,46.53465346534654,TRAINING,0,93,61,48,101
304,GO,0.6468019485473633,1,0,0,0,7319.136193990707,go2500_nogo2700,3,SRCF014,-0.1900888844436912,46.71052631578947,TRAINING,0,94,61,48,101
305,NOGO,,0,0,1,0,7399.145466089249,go2500_nogo2700,3,SRCF014,-0.17764692541809413,46.885245901639344,TRAINING,0,94,61,49,101
306,NOGO,,0,0,1,0,7680.672949075699,go2500_nogo2700,3,SRCF014,-0.1654359955232365,47.05882352941176,TRAINING,0,94,61,50,101
307,GO,0.2886800765991211,1,0,0,0,7802.421828985214,go2500_nogo2700,3,SRCF014,-0.1589053414213083,47.23127035830619,TRAINING,0,95,61,50,101
308,NOGO,1.8592798709869385,0,0,0,1,7927.490787982941,go2500_nogo2700,3,SRCF014,-0.16489311892017738,47.07792207792208,TRAINING,0,95,61,50,102
309,NOGO,,0,0,1,0,8155.6085460186,go2500_nogo2700,3,SRCF014,-0.1529131343059953,47.249190938511326,TRAINING,0,95,61,51,102
310,NOGO,,0,0,1,0,11265.269623041151,go2500_nogo2700,3,SRCF014,-0.14114764317153372,47.41935483870968,TRAINING,0,95,61,52,102
311,GO,,0,1,0,0,11319.959150075912,go2500_nogo2700,3,SRCF014,-0.15115568251938422,47.266881028938904,TRAINING,0,95,62,52,102
312,NOGO,0.4682087898254394,0,0,0,1,11343.638922929764,go2500_nogo2700,3,SRCF014,-0.15709735107827483,47.11538461538461,TRAINING,0,95,62,52,103
313,NOGO,,0,0,1,0,11390.268435001371,go2500_nogo2700,3,SRCF014,-0.1455464891617071,47.284345047923324,TRAINING,0,95,62,53,103
314,GO,,0,1,0,0,11407.678297042848,go2500_nogo2700,3,SRCF014,-0.15540267733315088,47.13375796178344,TRAINING,0,95,63,53,103
315,NOGO,,0,0,1,0,13142.232439041138,go2500_nogo2700,3,SRCF014,-0.14405150408497341,47.3015873015873,TRAINING,0,95,63,54,103
316,GO,,0,1,0,0,13161.262154102324,go2500_nogo2700,3,SRCF014,-0.15376023890126383,47.151898734177216,TRAINING,0,95,64,54,103
317,GO,1.484367847442627,1,0,0,0,13240.71141409874,go2500_nogo2700,3,SRCF014,-0.14728711119319898,47.3186119873817,TRAINING,0,96,64,54,103
318,GO,,0,1,0,0,13313.740838050842,go2500_nogo2700,3,SRCF014,-0.15684851044472808,47.16981132075472,TRAINING,0,96,65,54,103
319,GO,1.2913339138031006,1,0,0,0,13423.479666948318,go2500_nogo2700,3,SRCF014,-0.1504407793766297,47.33542319749217,TRAINING,0,97,65,54,103
320,GO,0.8748369216918945,1,0,0,0,13519.83879995346,go2500_nogo2700,3,SRCF014,-0.1441011557122755,47.5,TRAINING,0,98,65,54,103
321,NOGO,,0,0,1,0,14174.792788028715,go2500_nogo2700,3,SRCF014,-0.13294299481346883,47.66355140186916,TRAINING,0,98,65,55,103
322,NOGO,1.2011339664459229,0,0,0,1,14293.181709051132,go2500_nogo2700,3,SRCF014,-0.13884546035761447,47.51552795031056,TRAINING,0,98,65,55,104
323,NOGO,,0,0,1,0,7.023921966552734,go2500_nogo2700,4,SRCF014,-0.12788065055846004,47.6780185758514,TRAINING,0,98,65,56,104
324,GO,1.53546404838562,1,0,0,0,26.493600845336918,go2500_nogo2700,4,SRCF014,-0.12160779543408812,47.839506172839506,TRAINING,0,99,65,56,104
325,NOGO,0.0103900432586669,0,0,0,1,42.38345289230347,go2500_nogo2700,4,SRCF014,-0.12745713741659914,47.69230769230769,TRAINING,0,99,65,56,105
326,GO,0.8585808277130127,1,0,0,0,71.9831428527832,go2500_nogo2700,4,SRCF014,-0.1212497504774449,47.85276073619632,TRAINING,0,100,65,56,105
327,NOGO,0.6084549427032471,0,0,0,1,96.9029347896576,go2500_nogo2700,4,SRCF014,-0.1270404042356788,47.706422018348626,TRAINING,0,100,65,56,106
328,NOGO,1.0566349029541016,0,0,0,1,121.49274396896362,go2500_nogo2700,4,SRCF014,-0.13277345456683015,47.5609756097561,TRAINING,0,100,65,56,107
329,NOGO,0.3142070770263672,0,0,0,1,152.2923879623413,go2500_nogo2700,4,SRCF014,-0.1384499570583821,47.41641337386018,TRAINING,0,100,65,56,108
330,NOGO,0.5172078609466553,0,0,0,1,176.89217591285706,go2500_nogo2700,4,SRCF014,-0.14407093912194974,47.27272727272727,TRAINING,0,100,65,56,109
331,GO,1.0732920169830322,1,0,0,0,205.19186401367188,go2500_nogo2700,4,SRCF014,-0.13792775706125687,47.43202416918429,TRAINING,0,101,65,56,109
332,NOGO,0.6676239967346191,0,0,0,1,233.4516549110413,go2500_nogo2700,4,SRCF014,-0.14349421892108444,47.28915662650602,TRAINING,0,101,65,56,110
333,GO,0.2999160289764404,1,0,0,0,258.5014138221741,go2500_nogo2700,4,SRCF014,-0.1374140140879711,47.44744744744745,TRAINING,0,102,65,56,110
334,NOGO,0.7884080410003662,0,0,0,1,302.72108578681946,go2500_nogo2700,4,SRCF014,-0.14292692972645155,47.30538922155689,TRAINING,0,102,65,56,111
335,NOGO,0.0402891635894775,0,0,0,1,331.6107268333435,go2500_nogo2700,4,SRCF014,-0.14838724778890305,47.16417910447761,TRAINING,0,102,65,56,112
336,NOGO,1.1000449657440186,0,0,0,1,361.98046684265137,go2500_nogo2700,4,SRCF014,-0.15379589244968722,47.023809523809526,TRAINING,0,102,65,56,113
337,GO,0.1363780498504638,1,0,0,0,392.9202098846436,go2500_nogo2700,4,SRCF014,-0.14777747152199244,47.18100890207715,TRAINING,0,103,65,56,113
338,GO,0.7845151424407959,1,0,0,0,414.740031003952,go2500_nogo2700,4,SRCF014,-0.14181967424047875,47.337278106508876,TRAINING,0,104,65,56,113
339,GO,1.23980712890625,1,0,0,0,505.1391968727112,go2500_nogo2700,4,SRCF014,-0.13592137220100864,47.49262536873156,TRAINING,0,105,65,56,113
340,NOGO,,0,0,1,0,574.2485539913177,go2500_nogo2700,4,SRCF014,-0.12519551664875977,47.647058823529406,TRAINING,0,105,65,57,113
341,GO,1.2032809257507324,1,0,0,0,587.9983909130096,go2500_nogo2700,4,SRCF014,-0.11935561214927104,47.80058651026393,TRAINING,0,106,65,57,113
342,NOGO,1.2566440105438232,0,0,0,1,623.958132982254,go2500_nogo2700,4,SRCF014,-0.12472007612493435,47.66081871345029,TRAINING,0,106,65,57,114
343,GO,,0,1,0,0,665.0477139949799,go2500_nogo2700,4,SRCF014,-0.13410076306258312,47.521865889212826,TRAINING,0,106,66,57,114
344,NOGO,,0,0,1,0,736.0670719146729,go2500_nogo2700,4,SRCF014,-0.12355354478337793,47.674418604651166,TRAINING,0,106,66,58,114
345,GO,,0,1,0,0,775.4166769981384,go2500_nogo2700,4,SRCF014,-0.13280104980060126,47.53623188405797,TRAINING,0,106,67,58,114
346,GO,1.11399507522583,1,0,0,0,909.6056349277496,go2500_nogo2700,4,SRCF014,-0.12700983829937962,47.687861271676304,TRAINING,0,107,67,58,114
347,NOGO,0.0062711238861083,0,0,0,1,970.2450139522552,go2500_nogo2700,4,SRCF014,-0.1323307732584525,47.55043227665706,TRAINING,0,107,67,58,115
348,GO,,0,1,0,0,995.7946808338164,go2500_nogo2700,4,SRCF014,-0.1414446805238419,47.41379310344828,TRAINING,0,107,68,58,115
349,GO,1.878777027130127,1,0,0,0,1020.674498796463,go2500_nogo2700,4,SRCF014,-0.1357056078201166,47.56446991404012,TRAINING,0,108,68,58,115
350,NOGO,1.47701096534729,0,0,0,1,1112.8536558151245,go2500_nogo2700,4,SRCF014,-0.14097752502593042,47.42857142857143,TRAINING,0,108,68,58,116
351,GO,,0,1,0,0,1164.2431960105896,go2500_nogo2700,4,SRCF014,-0.14996162593385093,47.293447293447294,TRAINING,0,108,69,58,116
352,GO,0.7629549503326416,1,0,0,0,1207.8829379081726,go2500_nogo2700,4,SRCF014,-0.14427378553062797,47.44318181818182,TRAINING,0,109,69,58,116
353,GO,0.4730739593505859,1,0,0,0,1297.991926908493,go2500_nogo2700,4,SRCF014,-0.13864009941625421,47.59206798866856,TRAINING,0,110,69,58,116
354,NOGO,0.6406939029693604,0,0,0,1,1394.201064825058,go2500_nogo2700,4,SRCF014,-0.14386383071313158,47.45762711864407,TRAINING,0,110,69,58,117
355,NOGO,,0,0,1,0,1444.3705699443815,go2500_nogo2700,4,SRCF014,-0.13350168644409383,47.6056338028169,TRAINING,0,110,69,59,117
356,NOGO,,0,0,1,0,1467.710335969925,go2500_nogo2700,4,SRCF014,-0.12330043618468306,47.752808988764045,TRAINING,0,110,69,60,117
357,GO,0.4000508785247803,1,0,0,0,1652.768653869629,go2500_nogo2700,4,SRCF014,-0.1177199510873595,47.89915966386555,TRAINING,0,111,69,60,117
358,GO,0.5294218063354492,1,0,0,0,1715.0780699253082,go2500_nogo2700,4,SRCF014,-0.11219173827797863,48.04469273743017,TRAINING,0,112,69,60,117
359,GO,,0,1,0,0,1801.0673518180847,go2500_nogo2700,4,SRCF014,-0.12103814201221119,47.910863509749305,TRAINING,0,112,70,60,117
360,GO,0.8912041187286377,1,0,0,0,1833.836996793747,go2500_nogo2700,4,SRCF014,-0.11555738822554107,48.05555555555556,TRAINING,0,113,70,60,117
361,NOGO,,0,0,1,0,1926.336191892624,go2500_nogo2700,4,SRCF014,-0.10551218546426089,48.199445983379505,TRAINING,0,113,70,61,117
362,NOGO,0.7237248420715332,0,0,0,1,1999.0454969406128,go2500_nogo2700,4,SRCF014,-0.11070633081448672,48.06629834254144,TRAINING,0,113,70,61,118
363,NOGO,,0,0,1,0,2107.9544949531555,go2500_nogo2700,4,SRCF014,-0.10081804735906252,48.209366391184574,TRAINING,0,113,70,62,118
364,NOGO,,0,0,1,0,2289.3827710151672,go2500_nogo2700,4,SRCF014,-0.09107656131002956,48.35164835164835,TRAINING,0,113,70,63,118
365,NOGO,0.0,0,0,0,1,2384.571896791458,go2500_nogo2700,4,SRCF014,-0.09623498365471828,48.21917808219178,TRAINING,0,113,70,63,119
366,NOGO,0.9689981937408448,0,0,0,1,2707.098882913589,go2500_nogo2700,4,SRCF014,-0.10134765585506211,48.08743169398907,TRAINING,0,113,70,63,120
367,NOGO,0.1463029384613037,0,0,0,1,2901.1272280216217,go2500_nogo2700,4,SRCF014,-0.10641532608898852,47.956403269754766,TRAINING,0,113,70,63,121
368,GO,,0,1,0,0,2986.0163819789886,go2500_nogo2700,4,SRCF014,-0.11513942017723061,47.82608695652174,TRAINING,0,113,71,63,121
369,GO,0.994300127029419,1,0,0,0,3052.395763874054,go2500_nogo2700,4,SRCF014,-0.10970534052626696,47.96747967479675,TRAINING,0,114,71,63,121
370,GO,1.0407540798187256,1,0,0,0,3299.5035638809204,go2500_nogo2700,4,SRCF014,-0.10432082575386947,48.10810810810811,TRAINING,0,115,71,63,121
371,GO,1.1413650512695312,1,0,0,0,3456.4121828079224,go2500_nogo2700,4,SRCF014,-0.09898504002939335,48.24797843665768,TRAINING,0,116,71,63,121
372,GO,1.3885080814361572,1,0,0,0,3602.660877943039,go2500_nogo2700,4,SRCF014,-0.09369716813679602,48.38709677419355,TRAINING,0,117,71,63,121
373,NOGO,,0,0,1,0,3670.6103098392487,go2500_nogo2700,4,SRCF014,-0.08411365860522413,48.525469168900806,TRAINING,0,117,71,64,121
374,NOGO,1.118027925491333,0,0,0,1,3712.429849863053,go2500_nogo2700,4,SRCF014,-0.08914222010084266,48.39572192513369,TRAINING,0,117,71,64,122
375,GO,0.1092751026153564,1,0,0,0,3774.779253959656,go2500_nogo2700,4,SRCF014,-0.08390146676804966,48.53333333333333,TRAINING,0,118,71,64,122
376,NOGO,,0,0,1,0,3950.177631855011,go2500_nogo2700,4,SRCF014,-0.07446091573493341,48.67021276595745,TRAINING,0,118,71,65,122
377,NOGO,1.4426720142364502,0,0,0,1,4056.3066120147705,go2500_nogo2700,4,SRCF014,-0.07945092487662958,48.54111405835544,TRAINING,0,118,71,65,123
378,GO,1.5434949398040771,1,0,0,0,4612.971692800522,go2500_nogo2700,4,SRCF014,-0.07425651413200873,48.67724867724868,TRAINING,0,119,71,65,123
379,GO,1.7655689716339111,1,0,0,0,4770.120260953903,go2500_nogo2700,4,SRCF014,-0.06910768868665085,48.812664907651715,TRAINING,0,120,71,65,123
380,NOGO,0.4296610355377197,0,0,0,1,4989.398126840591,go2500_nogo2700,4,SRCF014,-0.07405486156019309,48.68421052631579,TRAINING,0,120,71,65,124
381,GO,,0,1,0,0,8355.046791791916,go2500_nogo2700,4,SRCF014,-0.08263759911811464,48.55643044619423,TRAINING,0,120,72,65,124
382,GO,,0,1,0,0,8838.612389802933,go2500_nogo2700,4,SRCF014,-0.09110892773468326,48.42931937172775,TRAINING,0,120,73,65,124
383,NOGO,,0,0,1,0,9414.017091989515,go2500_nogo2700,4,SRCF014,-0.08181197815899871,48.56396866840731,TRAINING,0,120,73,66,124
384,NOGO,,0,0,1,0,9432.766912937164,go2500_nogo2700,4,SRCF014,-0.0726449633325344,48.69791666666667,TRAINING,0,120,73,67,124
385,GO,,0,1,0,0,9473.226527929306,go2500_nogo2700,4,SRCF014,-0.08100766373459811,48.57142857142857,TRAINING,0,120,74,67,124
386,NOGO,,0,0,1,0,10569.096379995346,go2500_nogo2700,4,SRCF014,-0.07196706792930657,48.704663212435236,TRAINING,0,120,74,68,124
387,NOGO,0.0016689300537109,0,0,0,1,10582.146207809448,go2500_nogo2700,4,SRCF014,-0.07688611256720745,48.57881136950905,TRAINING,0,120,74,68,125
388,NOGO,,0,0,1,0,10613.805926799774,go2500_nogo2700,4,SRCF014,-0.06797291545125866,48.71134020618557,TRAINING,0,120,74,69,125
389,NOGO,,0,0,1,0,11410.308600902556,go2500_nogo2700,4,SRCF014,-0.05917937410093682,48.84318766066838,TRAINING,0,120,74,70,125
390,NOGO,0.9301660060882568,0,0,0,1,11444.548214912416,go2500_nogo2700,4,SRCF014,-0.06406554900520744,48.717948717948715,TRAINING,0,120,74,70,126
391,GO,1.062304973602295,1,0,0,0,12122.05191397667,go2500_nogo2700,4,SRCF014,-0.05895053660066385,48.84910485933504,TRAINING,0,121,74,70,126
392,GO,,0,1,0,0,12271.51054596901,go2500_nogo2700,4,SRCF014,-0.06720388262563548,48.724489795918366,TRAINING,0,121,75,70,126
393,NOGO,,0,0,1,0,12290.130401849749,go2500_nogo2700,4,SRCF014,-0.05853096043100042,48.854961832061065,TRAINING,0,121,75,71,126
394,GO,1.0082390308380127,1,0,0,0,13803.216472864153,go2500_nogo2700,4,SRCF014,-0.05345657303407436,48.984771573604064,TRAINING,0,122,75,71,126
395,NOGO,0.0346930027008056,0,0,0,1,13852.486011981964,go2500_nogo2700,4,SRCF014,-0.058306055015516056,48.860759493670884,TRAINING,0,122,75,71,127
396,NOGO,0.4239799976348877,0,0,0,1,13930.2154109478,go2500_nogo2700,4,SRCF014,-0.06311540396122567,48.73737373737374,TRAINING,0,122,75,71,128
397,GO,0.266664981842041,1,0,0,0,14254.312414884567,go2500_nogo2700,4,SRCF014,-0.05808434379405303,48.86649874055416,TRAINING,0,123,75,71,128
398,GO,,0,1,0,0,12.424599885940552,go2500_nogo2700,5,SRCF014,-0.06622782467582466,48.743718592964825,TRAINING,0,123,76,71,128
399,GO,1.9148509502410889,1,0,0,0,26.98431706428528,go2500_nogo2700,5,SRCF014,-0.0612360603550105,48.87218045112782,TRAINING,0,124,76,71,128
400,NOGO,0.0041940212249755,0,0,0,1,67.77397894859314,go2500_nogo2700,5,SRCF014,-0.06600588951054315,48.75,TRAINING,0,124,76,71,129
401,GO,1.047497034072876,1,0,0,0,98.63369989395142,go2500_nogo2700,5,SRCF014,-0.06105607697197041,48.87780548628429,TRAINING,0,125,76,71,129
402,NOGO,1.2907087802886963,0,0,0,1,225.21246910095212,go2500_nogo2700,5,SRCF014,-0.06578698589928678,48.756218905472636,TRAINING,0,125,76,71,130
403,NOGO,0.6310300827026367,0,0,0,1,253.90222692489624,go2500_nogo2700,5,SRCF014,-0.07047956087902729,48.635235732009924,TRAINING,0,125,76,71,131
404,NOGO,0.90372896194458,0,0,0,1,298.4418489933014,go2500_nogo2700,5,SRCF014,-0.07513437529809602,48.51485148514851,TRAINING,0,125,76,71,132
405,NOGO,0.5201399326324463,0,0,0,1,323.64156889915466,go2500_nogo2700,5,SRCF014,-0.07975199002320049,48.39506172839506,TRAINING,0,125,76,71,133
406,GO,1.1732709407806396,1,0,0,0,538.6196858882904,go2500_nogo2700,5,SRCF014,-0.07484347723956125,48.52216748768473,TRAINING,0,126,76,71,133
407,GO,,0,1,0,0,669.9184060096741,go2500_nogo2700,5,SRCF014,-0.08287670674460518,48.402948402948404,TRAINING,0,126,77,71,133
408,NOGO,0.0,0,0,0,1,684.8882238864899,go2500_nogo2700,5,SRCF014,-0.0874576704823562,48.28431372549019,TRAINING,0,126,77,71,134
409,NOGO,,0,0,1,0,841.896842956543,go2500_nogo2700,5,SRCF014,-0.07893014055431807,48.41075794621027,TRAINING,0,126,77,72,134
410,NOGO,,0,0,1,0,889.9963569641113,go2500_nogo2700,5,SRCF014,-0.07051208945354648,48.536585365853654,TRAINING,0,126,77,73,134
411,NOGO,,0,0,1,0,912.0161530971528,go2500_nogo2700,5,SRCF014,-0.06220079471205642,48.661800486618006,TRAINING,0,126,77,74,134
412,NOGO,,0,0,1,0,948.535815000534,go2500_nogo2700,5,SRCF014,-0.053993635902636006,48.786407766990294,TRAINING,0,126,77,75,134
413,NOGO,,0,0,1,0,1088.8144700527191,go2500_nogo2700,5,SRCF014,-0.04588808951960288,48.91041162227603,TRAINING,0,126,77,76,134
414,NOGO,,0,0,1,0,1117.1441938877106,go2500_nogo2700,5,SRCF014,-0.037881724180275356,49.033816425120776,TRAINING,0,126,77,77,134
415,NOGO,,0,0,1,0,1196.653470993042,go2500_nogo2700,5,SRCF014,-0.02997219612316321,49.1566265060241,TRAINING,0,126,77,78,134
416,NOGO,0.0016450881958007,0,0,0,1,1449.1511991024015,go2500_nogo2700,5,SRCF014,-0.03454280121733283,49.03846153846153,TRAINING,0,126,77,78,135
417,NOGO,,0,0,1,0,1557.2200999259949,go2500_nogo2700,5,SRCF014,-0.02673106061856939,49.16067146282973,TRAINING,0,126,77,79,135
418,GO,0.8321840763092041,1,0,0,0,1576.5700039863586,go2500_nogo2700,5,SRCF014,-0.021859919465153366,49.282296650717704,TRAINING,0,127,77,79,135
419,NOGO,,0,0,1,0,1660.3592309951782,go2500_nogo2700,5,SRCF014,-0.01414046750193182,49.40334128878281,TRAINING,0,127,77,80,135
420,GO,0.6004409790039062,1,0,0,0,1796.1378529071808,go2500_nogo2700,5,SRCF014,-0.009309345211633568,49.523809523809526,TRAINING,0,128,77,80,135
421,GO,1.1946969032287598,1,0,0,0,1854.037310123444,go2500_nogo2700,5,SRCF014,-0.004517633799336895,49.6437054631829,TRAINING,0,129,77,80,135
422,GO,1.1994328498840332,1,0,0,0,1985.5161509513853,go2500_nogo2700,5,SRCF014,0.00023526120814382212,49.763033175355446,TRAINING,0,130,77,80,135
423,GO,0.7638239860534668,1,0,0,0,2001.1859250068665,go2500_nogo2700,5,SRCF014,0.004949921168285021,49.881796690307326,TRAINING,0,131,77,80,135
424,GO,1.202955961227417,1,0,0,0,2064.5254271030426,go2500_nogo2700,5,SRCF014,0.009626914704626677,50.0,TRAINING,0,132,77,80,135
425,NOGO,,0,0,1,0,2100.645078897476,go2500_nogo2700,5,SRCF014,0.017256180291491896,50.117647058823536,TRAINING,0,132,77,81,135
426,GO,0.8015551567077637,1,0,0,0,2248.813740968704,go2500_nogo2700,5,SRCF014,0.021896063661597465,50.23474178403756,TRAINING,0,133,77,81,135
427,GO,,0,1,0,0,2315.273111104965,go2500_nogo2700,5,SRCF014,0.013983230505680955,50.11709601873536,TRAINING,0,133,78,81,135
428,NOGO,1.096040964126587,0,0,0,1,2346.6628630161285,go2500_nogo2700,5,SRCF014,0.009438760597068274,50.0,TRAINING,0,133,78,81,136
429,NOGO,,0,0,1,0,2461.011820077896,go2500_nogo2700,5,SRCF014,0.016976955088753132,50.116550116550115,TRAINING,0,133,78,82,136
430,NOGO,0.2063989639282226,0,0,0,1,2485.6416471004486,go2500_nogo2700,5,SRCF014,0.012464493838628077,50.0,TRAINING,0,133,78,82,137
431,NOGO,0.7076630592346191,0,0,0,1,2520.191251039505,go2500_nogo2700,5,SRCF014,0.007986459999849593,49.88399071925754,TRAINING,0,133,78,82,138
432,GO,0.3177938461303711,1,0,0,0,2549.590970993042,go2500_nogo2700,5,SRCF014,0.012593082548849222,50.0,TRAINING,0,134,78,82,138
433,GO,,0,1,0,0,2628.9602329730988,go2500_nogo2700,5,SRCF014,0.004778131406645791,49.88452655889146,TRAINING,0,134,79,82,138
434,NOGO,0.0,0,0,0,1,2883.847949981689,go2500_nogo2700,5,SRCF014,0.00033403913463170287,49.76958525345622,TRAINING,0,134,79,82,139
435,NOGO,1.43662691116333,0,0,0,1,2919.5975720882416,go2500_nogo2700,5,SRCF014,-0.004076587383215202,49.6551724137931,TRAINING,0,134,79,82,140
436,NOGO,,0,0,1,0,3064.6362578868866,go2500_nogo2700,5,SRCF014,0.0033640770683895926,49.77064220183486,TRAINING,0,134,79,83,140
437,GO,0.0,1,0,0,0,3143.8354539871216,go2500_nogo2700,5,SRCF014,0.007937892705999205,49.88558352402746,TRAINING,0,135,79,83,140
438,GO,0.4098429679870605,1,0,0,0,3194.305005073548,go2500_nogo2700,5,SRCF014,0.012476227211792534,50.0,TRAINING,0,136,79,83,140
439,NOGO,1.406576156616211,0,0,0,1,3485.622333049774,go2500_nogo2700,5,SRCF014,0.008095703687480027,49.88610478359909,TRAINING,0,136,79,83,141
440,GO,1.2080399990081787,1,0,0,0,3656.140860080719,go2500_nogo2700,5,SRCF014,0.012599065904844109,50.0,TRAINING,0,137,79,83,141
441,NOGO,0.4767839908599853,0,0,0,1,3695.1803839206696,go2500_nogo2700,5,SRCF014,0.00825107140331166,49.88662131519274,TRAINING,0,137,79,83,142
442,NOGO,1.1843199729919434,0,0,0,1,3723.210124015808,go2500_nogo2700,5,SRCF014,0.0039351591840827704,49.7737556561086,TRAINING,0,137,79,83,143
443,GO,0.4693799018859863,1,0,0,0,3785.579675912857,go2500_nogo2700,5,SRCF014,0.00840404728533195,49.887133182844245,TRAINING,0,138,79,83,143
444,GO,1.3566389083862305,1,0,0,0,3953.138088941574,go2500_nogo2700,5,SRCF014,0.01283894906691685,50.0,TRAINING,0,139,79,83,143
445,NOGO,,0,0,1,0,3973.3278419971466,go2500_nogo2700,5,SRCF014,0.020187332658591572,50.112359550561806,TRAINING,0,139,79,84,143
446,GO,1.443997144699097,1,0,0,0,4128.616394996643,go2500_nogo2700,5,SRCF014,0.0245887258261549,50.224215246636774,TRAINING,0,140,79,84,143
447,NOGO,0.5656840801239014,0,0,0,1,4279.044982910156,go2500_nogo2700,5,SRCF014,0.02030161236101735,50.11185682326622,TRAINING,0,140,79,84,144
448,GO,0.5737590789794922,1,0,0,0,5998.619309902191,go2500_nogo2700,5,SRCF014,0.024669964804711897,50.22321428571429,TRAINING,0,141,79,84,144
449,NOGO,0.4196968078613281,0,0,0,1,6146.5678079128265,go2500_nogo2700,5,SRCF014,0.02041405392272705,50.11135857461024,TRAINING,0,141,79,84,145
450,NOGO,1.8536272048950195,0,0,0,1,6421.5952780246735,go2500_nogo2700,5,SRCF014,0.01618892563591101,50.0,TRAINING,0,141,79,84,146
451,GO,1.4661660194396973,1,0,0,0,6497.444560050964,go2500_nogo2700,5,SRCF014,0.0205246956963831,50.110864745011085,TRAINING,0,142,79,84,146
452,GO,,0,1,0,0,6513.444370031357,go2500_nogo2700,5,SRCF014,0.012827387589017247,50.0,TRAINING,0,142,80,84,146
453,GO,,0,1,0,0,6591.063709974289,go2500_nogo2700,5,SRCF014,0.005219551107367548,49.88962472406181,TRAINING,0,142,81,84,146
454,GO,,0,1,0,0,6608.823578119278,go2500_nogo2700,5,SRCF014,-0.002300824340951968,49.77973568281938,TRAINING,0,142,82,84,146
455,GO,1.2522430419921875,1,0,0,0,6631.323354005814,go2500_nogo2700,5,SRCF014,0.002012163515881682,49.89010989010989,TRAINING,0,143,82,84,146
456,NOGO,0.8299691677093506,0,0,0,1,7195.418148040772,go2500_nogo2700,5,SRCF014,-0.0021825938943669243,49.780701754385966,TRAINING,0,143,82,84,147
457,NOGO,,0,0,1,0,7230.467808961868,go2500_nogo2700,5,SRCF014,0.005072949190419507,49.89059080962801,TRAINING,0,143,82,85,147
458,GO,0.8132288455963135,1,0,0,0,7355.026782989502,go2500_nogo2700,5,SRCF014,0.009354279554832201,50.0,TRAINING,0,144,82,85,147
459,GO,,0,1,0,0,7393.406399965286,go2500_nogo2700,5,SRCF014,0.0019252843342036918,49.89106753812636,TRAINING,0,144,83,85,147
460,NOGO,,0,0,1,0,8060.380326032639,go2500_nogo2700,5,SRCF014,0.009101189755744976,50.0,TRAINING,0,144,83,86,147
461,GO,0.5764291286468506,1,0,0,0,8821.803287029266,go2500_nogo2700,5,SRCF014,0.013354241967880598,50.108459869848154,TRAINING,0,145,83,86,147
462,NOGO,1.252612829208374,0,0,0,1,10203.670491933824,go2500_nogo2700,5,SRCF014,0.009183922965249613,50.0,TRAINING,0,145,83,86,148
463,NOGO,,0,0,1,0,11209.271233081818,go2500_nogo2700,5,SRCF014,0.016279239818943858,50.10799136069114,TRAINING,0,145,83,87,148
464,NOGO,0.3978478908538818,0,0,0,1,11228.231055021286,go2500_nogo2700,5,SRCF014,0.012135817953703387,50.0,TRAINING,0,145,83,87,149
465,GO,1.4443931579589844,1,0,0,0,11492.128596067429,go2500_nogo2700,5,SRCF014,0.01635807519617899,50.10752688172043,TRAINING,0,146,83,87,149
466,NOGO,,0,0,1,0,11584.08779001236,go2500_nogo2700,5,SRCF014,0.023374586575440948,50.21459227467812,TRAINING,0,146,83,88,149
467,NOGO,,0,0,1,0,13574.609636068344,go2500_nogo2700,5,SRCF014,0.030316522148183866,50.32119914346895,TRAINING,0,146,83,89,149
468,GO,0.2435691356658935,1,0,0,0,13631.409120082855,go2500_nogo2700,5,SRCF014,0.03450839665634997,50.427350427350426,TRAINING,0,147,83,89,149
469,NOGO,0.8810141086578369,0,0,0,1,13676.738542079926,go2500_nogo2700,5,SRCF014,0.030389036234667377,50.31982942430704,TRAINING,0,147,83,89,150
470,NOGO,,0,0,1,0,13852.106966972353,go2500_nogo2700,5,SRCF014,0.03725549611583168,50.42553191489362,TRAINING,0,147,83,90,150
471,GO,0.6854050159454346,1,0,0,0,14220.213510036469,go2500_nogo2700,5,SRCF014,0.0414173920556028,50.530785562632694,TRAINING,0,148,83,90,150
472,GO,,0,1,0,0,14234.2933781147,go2500_nogo2700,5,SRCF014,0.034083361101402254,50.42372881355932,TRAINING,0,148,84,90,150
473,NOGO,0.3658678531646728,0,0,0,1,14269.333025932312,go2500_nogo2700,5,SRCF014,0.029990305673925632,50.317124735729394,TRAINING,0,148,84,90,151
474,NOGO,0.672875165939331,0,0,0,1,14295.782743930817,go2500_nogo2700,5,SRCF014,0.025925613569616923,50.210970464135016,TRAINING,0,148,84,90,152
475,GO,0.3718650341033935,1,0,0,0,14322.68250799179,go2500_nogo2700,5,SRCF014,0.030060832372386548,50.31578947368421,TRAINING,0,149,84,90,152
476,NOGO,,0,0,1,0,6.456728935241699,go2500_nogo2700,6,SRCF014,0.03685105387515564,50.42016806722689,TRAINING,0,149,84,91,152
477,GO,0.0,1,0,0,0,20.886539936065677,go2500_nogo2700,6,SRCF014,0.040957089455069484,50.524109014675055,TRAINING,0,150,84,91,152
478,GO,,0,1,0,0,32.54640483856201,go2500_nogo2700,6,SRCF014,0.0337100006490631,50.418410041841,TRAINING,0,150,85,91,152
479,GO,1.3256959915161133,1,0,0,0,61.11618900299072,go2500_nogo2700,6,SRCF014,0.0377900732075967,50.52192066805845,TRAINING,0,151,85,91,152
480,NOGO,,0,0,1,0,105.36571979522704,go2500_nogo2700,6,SRCF014,0.044510382351646505,50.625,TRAINING,0,151,85,92,152
481,NOGO,,0,0,1,0,128.49553394317627,go2500_nogo2700,6,SRCF014,0.05116216708583504,50.72765072765073,TRAINING,0,151,85,93,152
482,GO,0.4678020477294922,1,0,0,0,153.7752799987793,go2500_nogo2700,6,SRCF014,0.0552138205377688,50.829875518672196,TRAINING,0,152,85,93,152
483,NOGO,,0,0,1,0,200.47484183311465,go2500_nogo2700,6,SRCF014,0.061798427310044424,50.931677018633536,TRAINING,0,152,85,94,152
484,NOGO,,0,0,1,0,220.6246609687805,go2500_nogo2700,6,SRCF014,0.0683171627309962,51.03305785123967,TRAINING,0,152,85,95,152
485,GO,0.6914081573486328,1,0,0,0,236.29448890686035,go2500_nogo2700,6,SRCF014,0.07234076302108378,51.1340206185567,TRAINING,0,153,85,95,152
486,GO,1.063236951828003,1,0,0,0,293.07397079467773,go2500_nogo2700,6,SRCF014,0.07633666920424748,51.23456790123457,TRAINING,0,154,85,95,152
487,NOGO,0.2634952068328857,0,0,0,1,329.11366987228394,go2500_nogo2700,6,SRCF014,0.07228871223082928,51.129363449691986,TRAINING,0,154,85,95,153
488,NOGO,,0,0,1,0,364.2034029960632,go2500_nogo2700,6,SRCF014,0.07874079186824268,51.229508196721305,TRAINING,0,154,85,96,153
489,NOGO,0.3617599010467529,0,0,0,1,414.3328959941864,go2500_nogo2700,6,SRCF014,0.07471835161782525,51.124744376278116,TRAINING,0,154,85,96,154
490,NOGO,0.4458911418914795,0,0,0,1,446.5226538181305,go2500_nogo2700,6,SRCF014,0.07072313315412226,51.02040816326531,TRAINING,0,154,85,96,155
491,GO,1.966068983078003,1,0,0,0,471.872636795044,go2500_nogo2700,6,SRCF014,0.07469169756657512,51.12016293279022,TRAINING,0,155,85,96,155
492,NOGO,,0,0,1,0,489.6124699115753,go2500_nogo2700,6,SRCF014,0.08107644993675267,51.21951219512195,TRAINING,0,155,85,97,155
493,GO,,0,1,0,0,537.8217868804932,go2500_nogo2700,6,SRCF014,0.07392262284090045,51.115618661257614,TRAINING,0,155,86,97,155
494,GO,,0,1,0,0,564.2615787982941,go2500_nogo2700,6,SRCF014,0.06684609399165092,51.012145748987855,TRAINING,0,155,87,97,155
495,GO,0.2328569889068603,1,0,0,0,608.9111969470978,go2500_nogo2700,6,SRCF014,0.07079318941105944,51.11111111111111,TRAINING,0,156,87,97,155
496,GO,0.6920418739318848,1,0,0,0,642.0307929515839,go2500_nogo2700,6,SRCF014,0.07471364522771273,51.20967741935484,TRAINING,0,157,87,97,155
497,NOGO,,0,0,1,0,667.9306218624115,go2500_nogo2700,6,SRCF014,0.08103640613708801,51.30784708249497,TRAINING,0,157,87,98,155
498,NOGO,,0,0,1,0,687.6903629302979,go2500_nogo2700,6,SRCF014,0.08729833355377176,51.40562248995983,TRAINING,0,157,87,99,155
499,GO,,0,1,0,0,755.2197008132935,go2500_nogo2700,6,SRCF014,0.08030278666901602,51.302605210420836,TRAINING,0,157,88,99,155
500,NOGO,,0,0,1,0,778.1795089244843,go2500_nogo2700,6,SRCF014,0.08650500601011418,51.4,TRAINING,0,157,88,100,155
501,GO,0.236570119857788,1,0,0,0,799.1092808246613,go2500_nogo2700,6,SRCF014,0.09040181854675267,51.49700598802395,TRAINING,0,158,88,100,155
502,NOGO,,0,0,1,0,847.0988729000092,go2500_nogo2700,6,SRCF014,0.0965454239051417,51.59362549800797,TRAINING,0,158,88,101,155
503,GO,,0,1,0,0,945.2079968452454,go2500_nogo2700,6,SRCF014,0.08962642919023783,51.491053677932406,TRAINING,0,158,89,101,155
504,GO,0.8240299224853516,1,0,0,0,971.677853822708,go2500_nogo2700,6,SRCF014,0.0934998669171232,51.587301587301596,TRAINING,0,159,89,101,155
505,NOGO,,0,0,1,0,1007.8874328136444,go2500_nogo2700,6,SRCF014,0.09958592223031837,51.68316831683168,TRAINING,0,159,89,102,155
506,GO,0.6517541408538818,1,0,0,0,1037.1371369361875,go2500_nogo2700,6,SRCF014,0.10343371579558014,51.77865612648221,TRAINING,0,160,89,102,155
507,GO,,0,1,0,0,1121.6564688682556,go2500_nogo2700,6,SRCF014,0.09659215604783988,51.67652859960552,TRAINING,0,160,90,102,155
508,GO,0.1645529270172119,1,0,0,0,1146.1461868286133,go2500_nogo2700,6,SRCF014,0.10041716146054297,51.77165354330708,TRAINING,0,161,90,102,155
509,GO,0.4002048969268799,1,0,0,0,1194.9756948947906,go2500_nogo2700,6,SRCF014,0.10421715293916006,51.8664047151277,TRAINING,0,162,90,102,155
510,NOGO,,0,0,1,0,1291.274852991104,go2500_nogo2700,6,SRCF014,0.11024669310355006,51.9607843137255,TRAINING,0,162,90,103,155
511,GO,1.016103982925415,1,0,0,0,1406.233806848526,go2500_nogo2700,6,SRCF014,0.11402197313151868,52.054794520547944,TRAINING,0,163,90,103,155
512,NOGO,,0,0,1,0,1452.413419961929,go2500_nogo2700,6,SRCF014,0.11999600506502855,52.1484375,TRAINING,0,163,90,104,155
513,NOGO,,0,0,1,0,1478.343134880066,go2500_nogo2700,6,SRCF014,0.12591550872106902,52.241715399610136,TRAINING,0,163,90,105,155
514,NOGO,,0,0,1,0,1535.2527158260343,go2500_nogo2700,6,SRCF014,0.13178143805645362,52.33463035019456,TRAINING,0,163,90,106,155
515,NOGO,,0,0,1,0,1553.5224788188934,go2500_nogo2700,6,SRCF014,0.13759472195578326,52.42718446601942,TRAINING,0,163,90,107,155
516,GO,0.7813060283660889,1,0,0,0,1574.2924208641052,go2500_nogo2700,6,SRCF014,0.14134558766708877,52.51937984496124,TRAINING,0,164,90,107,155
517,NOGO,,0,0,1,0,1639.4716639518738,go2500_nogo2700,6,SRCF014,0.14710713082595536,52.61121856866537,TRAINING,0,164,90,108,155
518,NOGO,,0,0,1,0,1713.991010904312,go2500_nogo2700,6,SRCF014,0.1528178145951614,52.702702702702695,TRAINING,0,164,90,109,155
519,GO,,0,1,0,0,1902.6692287921903,go2500_nogo2700,6,SRCF014,0.14605696022063472,52.601156069364166,TRAINING,0,164,91,109,155
520,NOGO,0.6152870655059814,0,0,0,1,2106.207409858704,go2500_nogo2700,6,SRCF014,0.14206661002644452,52.5,TRAINING,0,164,91,109,156
521,NOGO,,0,0,1,0,2474.38396191597,go2500_nogo2700,6,SRCF014,0.1477259537677898,52.5911708253359,TRAINING,0,164,91,110,156
522,NOGO,,0,0,1,0,2499.143675804138,go2500_nogo2700,6,SRCF014,0.1533361789945261,52.68199233716475,TRAINING,0,164,91,111,156
523,NOGO,,0,0,1,0,2623.1126639842987,go2500_nogo2700,6,SRCF014,0.1588981007403936,52.77246653919694,TRAINING,0,164,91,112,156
524,NOGO,,0,0,1,0,2895.300057888031,go2500_nogo2700,6,SRCF014,0.1644125137468607,52.862595419847324,TRAINING,0,164,91,113,156
525,GO,,0,1,0,0,3102.658090829849,go2500_nogo2700,6,SRCF014,0.15772073933842426,52.761904761904766,TRAINING,0,164,92,113,156
526,NOGO,,0,0,1,0,4869.151800870895,go2500_nogo2700,6,SRCF014,0.1631884187316796,52.851711026615966,TRAINING,0,164,92,114,156
527,NOGO,,0,0,1,0,4973.64089679718,go2500_nogo2700,6,SRCF014,0.16861012067131742,52.94117647058824,TRAINING,0,164,92,115,156
528,NOGO,,0,0,1,0,5081.899860858917,go2500_nogo2700,6,SRCF014,0.1739865829721345,53.03030303030303,TRAINING,0,164,92,116,156
529,GO,,0,1,0,0,5107.909638881683,go2500_nogo2700,6,SRCF014,0.16736252068356974,52.93005671077504,TRAINING,0,164,93,116,156
530,NOGO,,0,0,1,0,5208.028632879257,go2500_nogo2700,6,SRCF014,0.17269446341181208,53.0188679245283,TRAINING,0,164,93,117,156
531,NOGO,,0,0,1,0,5222.7685289382935,go2500_nogo2700,6,SRCF014,0.17798258945713208,53.10734463276836,TRAINING,0,164,93,118,156
532,GO,,0,1,0,0,5244.198296785355,go2500_nogo2700,6,SRCF014,0.17142491233590845,53.00751879699248,TRAINING,0,164,94,118,156
533,GO,,0,1,0,0,5375.687084913254,go2500_nogo2700,6,SRCF014,0.16493233268283974,52.908067542213885,TRAINING,0,164,95,118,156
534,GO,0.7387948036193848,1,0,0,0,6087.200481891632,go2500_nogo2700,6,SRCF014,0.1686709353298954,52.99625468164793,TRAINING,0,165,95,118,156
535,GO,,0,1,0,0,6171.619709014893,go2500_nogo2700,6,SRCF014,0.1622443856687441,52.89719626168225,TRAINING,0,165,96,118,156
536,NOGO,0.0,0,0,0,1,6208.52938079834,go2500_nogo2700,6,SRCF014,0.15826975510346436,52.79850746268657,TRAINING,0,165,96,118,157
537,GO,0.9998118877410888,1,0,0,0,6296.858563899994,go2500_nogo2700,6,SRCF014,0.16198675148199443,52.886405959031656,TRAINING,0,166,96,118,157
538,NOGO,0.9594860076904296,0,0,0,1,6581.165893793106,go2500_nogo2700,6,SRCF014,0.15803803463768482,52.78810408921933,TRAINING,0,166,96,118,158
539,GO,0.1681900024414062,1,0,0,0,6910.252968788147,go2500_nogo2700,6,SRCF014,0.16173152219836515,52.875695732838594,TRAINING,0,167,96,118,158
540,GO,0.3807408809661865,1,0,0,0,7228.889841794968,go2500_nogo2700,6,SRCF014,0.1654017760956221,52.96296296296297,TRAINING,0,168,96,118,158
541,GO,0.6652791500091553,1,0,0,0,7631.526042938232,go2500_nogo2700,6,SRCF014,0.1690490667698217,53.04990757855823,TRAINING,0,169,96,118,158
542,GO,1.1423602104187012,1,0,0,0,9043.132946014404,go2500_nogo2700,6,SRCF014,0.1726736600539215,53.13653136531366,TRAINING,0,170,96,118,158
543,GO,,0,1,0,0,9627.36758184433,go2500_nogo2700,6,SRCF014,0.1663204244127369,53.03867403314917,TRAINING,0,170,97,118,158
544,NOGO,,0,0,1,0,9639.637482881546,go2500_nogo2700,6,SRCF014,0.17156343701974824,53.125,TRAINING,0,170,97,119,158
545,GO,1.1666820049285889,1,0,0,0,9810.855784893036,go2500_nogo2700,6,SRCF014,0.1751677653771065,53.21100917431193,TRAINING,0,171,97,119,158
546,NOGO,,0,0,1,0,9882.145165920258,go2500_nogo2700,6,SRCF014,0.18036839138489585,53.2967032967033,TRAINING,0,171,97,120,158
547,NOGO,,0,0,1,0,10002.254055976868,go2500_nogo2700,6,SRCF014,0.18552728381029449,53.38208409506399,TRAINING,0,171,97,121,158
548,GO,0.6829900741577148,1,0,0,0,10024.223884820938,go2500_nogo2700,6,SRCF014,0.18910944008625086,53.46715328467153,TRAINING,0,172,97,121,158
549,NOGO,,0,0,1,0,10400.750367879868,go2500_nogo2700,6,SRCF014,0.1942272368757138,53.551912568306015,TRAINING,0,172,97,122,158
550,GO,,0,1,0,0,10555.538911819458,go2500_nogo2700,6,SRCF014,0.18793934581559985,53.45454545454545,TRAINING,0,172,98,122,158
551,GO,,0,1,0,0,10587.048692941666,go2500_nogo2700,6,SRCF014,0.18171131493118264,53.35753176043557,TRAINING,0,172,99,122,158
552,GO,,0,1,0,0,11064.274191856384,go2500_nogo2700,6,SRCF014,0.17554204103578896,53.2608695652174,TRAINING,0,172,100,122,158
553,GO,0.5703680515289307,1,0,0,0,11085.64400601387,go2500_nogo2700,6,SRCF014,0.17910849985834926,53.34538878842676,TRAINING,0,173,100,122,158
554,NOGO,,0,0,1,0,11358.771451950071,go2500_nogo2700,6,SRCF014,0.18418582435380434,53.42960288808665,TRAINING,0,173,100,123,158
555,GO,,0,1,0,0,11388.98121380806,go2500_nogo2700,6,SRCF014,0.1780762022578601,53.333333333333336,TRAINING,0,173,101,123,158
556,GO,,0,1,0,0,11578.009386777878,go2500_nogo2700,6,SRCF014,0.1720231702809771,53.23741007194245,TRAINING,0,173,102,123,158
557,NOGO,,0,0,1,0,11591.75161600113,go2500_nogo2700,6,SRCF014,0.17706063166762046,53.3213644524237,TRAINING,0,173,102,124,158
558,GO,,0,1,0,0,11618.559000968931,go2500_nogo2700,6,SRCF014,0.1710631764478481,53.2258064516129,TRAINING,0,173,103,124,158
559,GO,,0,1,0,0,11638.868810892103,go2500_nogo2700,6,SRCF014,0.1651203120050758,53.13059033989267,TRAINING,0,173,104,124,158
560,NOGO,,0,0,1,0,11728.418000936508,go2500_nogo2700,6,SRCF014,0.1701185057419548,53.214285714285715,TRAINING,0,173,104,125,158
561,NOGO,,0,0,1,0,11873.506688833237,go2500_nogo2700,6,SRCF014,0.17507801397613174,53.297682709447415,TRAINING,0,173,104,126,158
562,GO,0.8230090141296387,1,0,0,0,12734.348850011826,go2500_nogo2700,6,SRCF014,0.17863041863513687,53.380782918149464,TRAINING,0,174,104,126,158
563,GO,1.6101598739624023,1,0,0,0,12766.578464984894,go2500_nogo2700,6,SRCF014,0.18216144626992983,53.46358792184724,TRAINING,0,175,104,126,158
564,GO,0.7509889602661133,1,0,0,0,12824.607975006104,go2500_nogo2700,6,SRCF014,0.18567133514732478,53.54609929078015,TRAINING,0,176,104,126,158
565,GO,1.9251770973205569,1,0,0,0,12870.257598876951,go2500_nogo2700,6,SRCF014,0.18916031964298954,53.6283185840708,TRAINING,0,177,104,126,158
566,GO,1.4227180480957031,1,0,0,0,12947.796852827072,go2500_nogo2700,6,SRCF014,0.19262863032543495,53.71024734982333,TRAINING,0,178,104,126,158
567,GO,0.8526651859283447,1,0,0,0,13044.316015005112,go2500_nogo2700,6,SRCF014,0.19607649403774682,53.79188712522046,TRAINING,0,179,104,126,158
568,GO,1.4183940887451172,1,0,0,0,13069.245741844175,go2500_nogo2700,6,SRCF014,0.19950413397713282,53.87323943661971,TRAINING,0,180,104,126,158
569,NOGO,,0,0,1,0,13105.635434865952,go2500_nogo2700,6,SRCF014,0.20442552594218044,53.95430579964851,TRAINING,0,180,104,127,158
570,GO,1.7767369747161863,1,0,0,0,13138.10514998436,go2500_nogo2700,6,SRCF014,0.20783316173740057,54.03508771929825,TRAINING,0,181,104,127,158
571,NOGO,,0,0,1,0,13566.33110189438,go2500_nogo2700,6,SRCF014,0.21271699413694273,54.115586690017516,TRAINING,0,181,104,128,158
572,NOGO,0.8586981296539307,0,0,0,1,13586.090855836868,go2500_nogo2700,6,SRCF014,0.2087852939873084,54.02097902097902,TRAINING,0,181,104,128,159
573,NOGO,,0,0,1,0,13662.810209989548,go2500_nogo2700,6,SRCF014,0.2136314312569147,54.10122164048866,TRAINING,0,181,104,129,159
574,NOGO,,0,0,1,0,13929.427723884584,go2500_nogo2700,6,SRCF014,0.2184411160279414,54.181184668989545,TRAINING,0,181,104,130,159
575,GO,0.0,1,0,0,0,3.634180068969727,go2500_nogo2700,7,SRCF014,0.22182896381469183,54.2608695652174,TRAINING,0,182,104,130,159
576,GO,1.896108865737915,1,0,0,0,12.863972187042236,go2500_nogo2700,7,SRCF014,0.22519723630900487,54.34027777777778,TRAINING,0,183,104,130,159
577,GO,,0,1,0,0,40.833715200424194,go2500_nogo2700,7,SRCF014,0.21932610239376818,54.24610051993067,TRAINING,0,183,105,130,159
578,NOGO,0.0,0,0,0,1,53.993614196777344,go2500_nogo2700,7,SRCF014,0.21541817830939236,54.15224913494809,TRAINING,0,183,105,130,160
579,GO,0.2007069587707519,1,0,0,0,76.58342814445496,go2500_nogo2700,7,SRCF014,0.2187689313975174,54.2314335060449,TRAINING,0,184,105,130,160
580,NOGO,0.8960340023040771,0,0,0,1,96.59322118759157,go2500_nogo2700,7,SRCF014,0.21488581457459005,54.137931034482754,TRAINING,0,184,105,130,161
581,NOGO,0.7322139739990234,0,0,0,1,121.20298409461977,go2500_nogo2700,7,SRCF014,0.21102721104704042,54.044750430292595,TRAINING,0,184,105,130,162
582,NOGO,0.0,0,0,0,1,147.16272807121277,go2500_nogo2700,7,SRCF014,0.20719283199191443,53.95189003436426,TRAINING,0,184,105,130,163
583,GO,0.0,1,0,0,0,171.86250710487366,go2500_nogo2700,7,SRCF014,0.2105244310336001,54.03087478559176,TRAINING,0,185,105,130,163
584,NOGO,,0,0,1,0,189.01241207122803,go2500_nogo2700,7,SRCF014,0.21529554470618434,54.109589041095894,TRAINING,0,185,105,131,163
585,GO,0.458571195602417,1,0,0,0,228.3920202255249,go2500_nogo2700,7,SRCF014,0.218608192380344,54.18803418803419,TRAINING,0,186,105,131,163
586,NOGO,0.4118669033050537,0,0,0,1,275.1916410923004,go2500_nogo2700,7,SRCF014,0.21479705716451844,54.09556313993175,TRAINING,0,186,105,131,164
587,NOGO,0.3494439125061035,0,0,0,1,347.4710280895233,go2500_nogo2700,7,SRCF014,0.21100956956520334,54.00340715502555,TRAINING,0,186,105,131,165
588,GO,,0,1,0,0,375.72078013420105,go2500_nogo2700,7,SRCF014,0.20519609440161835,53.91156462585034,TRAINING,0,186,106,131,165
589,NOGO,,0,0,1,0,399.1404981613159,go2500_nogo2700,7,SRCF014,0.2099305482542237,53.98981324278438,TRAINING,0,186,106,132,165
590,GO,1.0646278858184814,1,0,0,0,431.3203032016754,go2500_nogo2700,7,SRCF014,0.21322626293298436,54.067796610169495,TRAINING,0,187,106,132,165
591,NOGO,0.3807868957519531,0,0,0,1,487.7197630405426,go2500_nogo2700,7,SRCF014,0.2094614524593246,53.97631133671743,TRAINING,0,187,106,132,166
592,NOGO,0.4598898887634277,0,0,0,1,514.3394000530243,go2500_nogo2700,7,SRCF014,0.20571973308143982,53.88513513513513,TRAINING,0,187,106,132,167
593,GO,1.028059959411621,1,0,0,0,569.9388391971588,go2500_nogo2700,7,SRCF014,0.20899689778288016,53.96290050590219,TRAINING,0,188,106,132,167
594,NOGO,0.945979118347168,0,0,0,1,604.578595161438,go2500_nogo2700,7,SRCF014,0.20527800525705905,53.87205387205387,TRAINING,0,188,106,132,168
595,NOGO,,0,0,1,0,704.6476221084595,go2500_nogo2700,7,SRCF014,0.2099756544377262,53.94957983193277,TRAINING,0,188,106,133,168
596,NOGO,,0,0,1,0,747.2272350788116,go2500_nogo2700,7,SRCF014,0.2146391129838541,54.0268456375839,TRAINING,0,188,106,134,168
597,NOGO,0.8376049995422363,0,0,0,1,1002.71488904953,go2500_nogo2700,7,SRCF014,0.2109413958359143,53.936348408710224,TRAINING,0,188,106,134,169
598,NOGO,,0,0,1,0,1031.504672050476,go2500_nogo2700,7,SRCF014,0.21557048097158088,54.0133779264214,TRAINING,0,188,106,135,169
599,NOGO,,0,0,1,0,1076.894287109375,go2500_nogo2700,7,SRCF014,0.2201663380706317,54.09015025041736,TRAINING,0,188,106,136,169
600,NOGO,,0,0,1,0,1169.1833820343018,go2500_nogo2700,7,SRCF014,0.2247294205769183,54.166666666666664,TRAINING,0,188,106,137,169
601,GO,0.5359838008880615,1,0,0,0,1230.9627799987793,go2500_nogo2700,7,SRCF014,0.22798822856410733,54.24292845257903,TRAINING,0,189,106,137,169
602,GO,1.0701611042022705,1,0,0,0,1385.6413412094116,go2500_nogo2700,7,SRCF014,0.2312288701522261,54.31893687707641,TRAINING,0,190,106,137,169
603,NOGO,,0,0,1,0,1406.8811151981354,go2500_nogo2700,7,SRCF014,0.23575962225079025,54.39469320066335,TRAINING,0,190,106,138,169
604,NOGO,,0,0,1,0,1450.4907240867617,go2500_nogo2700,7,SRCF014,0.24025847912107468,54.47019867549668,TRAINING,0,190,106,139,169
605,NOGO,,0,0,1,0,1563.0198380947113,go2500_nogo2700,7,SRCF014,0.24472586718144718,54.54545454545454,TRAINING,0,190,106,140,169
606,NOGO,,0,0,1,0,1639.8589692115784,go2500_nogo2700,7,SRCF014,0.2491622043253961,54.62046204620462,TRAINING,0,190,106,141,169
607,NOGO,,0,0,1,0,1656.528792142868,go2500_nogo2700,7,SRCF014,0.2535679001497387,54.69522240527183,TRAINING,0,190,106,142,169
608,NOGO,,0,0,1,0,2024.385409116745,go2500_nogo2700,7,SRCF014,0.2579433561751654,54.76973684210527,TRAINING,0,190,106,143,169
609,NOGO,1.1091949939727783,0,0,0,1,2117.884479045868,go2500_nogo2700,7,SRCF014,0.2542627925819313,54.679802955665025,TRAINING,0,190,106,143,170
610,NOGO,,0,0,1,0,2436.3515210151672,go2500_nogo2700,7,SRCF014,0.25860794879172394,54.75409836065573,TRAINING,0,190,106,144,170
611,NOGO,,0,0,1,0,2723.448944091797,go2500_nogo2700,7,SRCF014,0.26292366660027106,54.828150572831426,TRAINING,0,190,106,145,170
612,GO,,0,1,0,0,2888.0374970436096,go2500_nogo2700,7,SRCF014,0.2571685302741317,54.738562091503276,TRAINING,0,190,107,145,170
613,NOGO,,0,0,1,0,2903.417321205139,go2500_nogo2700,7,SRCF014,0.2614551878219278,54.81239804241436,TRAINING,0,190,107,146,170
614,GO,,0,1,0,0,2986.026687145233,go2500_nogo2700,7,SRCF014,0.25575021326838093,54.72312703583062,TRAINING,0,190,108,146,170
615,NOGO,,0,0,1,0,3000.996460199356,go2500_nogo2700,7,SRCF014,0.26000818143991433,54.796747967479675,TRAINING,0,190,108,147,170
616,GO,0.2707929611206054,1,0,0,0,3521.501608133316,go2500_nogo2700,7,SRCF014,0.2632343950344679,54.87012987012987,TRAINING,0,191,108,147,170
617,NOGO,,0,0,1,0,3575.8515481948853,go2500_nogo2700,7,SRCF014,0.26746403764458804,54.94327390599676,TRAINING,0,191,108,148,170
618,GO,,0,1,0,0,3604.9708340168,go2500_nogo2700,7,SRCF014,0.26181009057853033,54.85436893203883,TRAINING,0,191,109,148,170
619,GO,0.7825801372528076,1,0,0,0,3710.729907035828,go2500_nogo2700,7,SRCF014,0.26502023826165444,54.92730210016155,TRAINING,0,192,109,148,170
620,GO,0.5620439052581787,1,0,0,0,4636.061479091644,go2500_nogo2700,7,SRCF014,0.26821278791219727,55.00000000000001,TRAINING,0,193,109,148,170
621,GO,,0,1,0,0,4678.6009731292725,go2500_nogo2700,7,SRCF014,0.26261065078303536,54.911433172302736,TRAINING,0,193,110,148,170
622,NOGO,,0,0,1,0,5399.7442672252655,go2500_nogo2700,7,SRCF014,0.26681232475731165,54.983922829581985,TRAINING,0,193,110,149,170
623,NOGO,,0,0,1,0,5947.86925816536,go2500_nogo2700,7,SRCF014,0.27098638030662525,55.0561797752809,TRAINING,0,193,110,150,170
624,NOGO,,0,0,1,0,6215.516732215881,go2500_nogo2700,7,SRCF014,0.27513316109620656,55.12820512820513,TRAINING,0,193,110,151,170
625,GO,0.7423520088195801,1,0,0,0,6464.164509057999,go2500_nogo2700,7,SRCF014,0.2783099799935326,55.2,TRAINING,0,194,110,151,170
626,NOGO,,0,0,1,0,6887.8305451869965,go2500_nogo2700,7,SRCF014,0.2824298233066637,55.27156549520767,TRAINING,0,194,110,152,170
627,NOGO,,0,0,1,0,7733.05263209343,go2500_nogo2700,7,SRCF014,0.2865230602032449,55.34290271132376,TRAINING,0,194,110,153,170
628,NOGO,,0,0,1,0,7899.721135139465,go2500_nogo2700,7,SRCF014,0.2905900156734193,55.4140127388535,TRAINING,0,194,110,154,170
629,NOGO,,0,0,1,0,7981.190398216248,go2500_nogo2700,7,SRCF014,0.29463100878644055,55.484896661367245,TRAINING,0,194,110,155,170
630,GO,0.1801140308380127,1,0,0,0,8071.389628171921,go2500_nogo2700,7,SRCF014,0.2977905890305941,55.55555555555556,TRAINING,0,195,110,155,170
631,GO,0.6336569786071777,1,0,0,0,8462.13593506813,go2500_nogo2700,7,SRCF014,0.3009331038038203,55.62599049128367,TRAINING,0,196,110,155,170
632,NOGO,0.2509961128234863,0,0,0,1,9792.283361196518,go2500_nogo2700,7,SRCF014,0.29727020617845606,55.5379746835443,TRAINING,0,196,110,155,171
633,GO,0.6572651863098145,1,0,0,0,9825.453005075457,go2500_nogo2700,7,SRCF014,0.30039582611535226,55.60821484992101,TRAINING,0,197,110,155,171
634,NOGO,,0,0,1,0,9838.142862081528,go2500_nogo2700,7,SRCF014,0.30441093909727296,55.678233438485805,TRAINING,0,197,110,156,171
635,GO,0.7902519702911377,1,0,0,0,10893.103187084198,go2500_nogo2700,7,SRCF014,0.3075198323343021,55.748031496062985,TRAINING,0,198,110,156,171
636,GO,1.2170050144195557,1,0,0,0,11088.771378993988,go2500_nogo2700,7,SRCF014,0.31061216455811047,55.81761006289309,TRAINING,0,199,110,156,171
637,GO,,0,1,0,0,14239.422246217728,go2500_nogo2700,7,SRCF014,0.3050675622600977,55.72998430141287,TRAINING,0,199,111,156,171
638,GO,,0,1,0,0,30.28131985664368,go2500_nogo2700,8,SRCF014,0.2995695153843853,55.64263322884012,TRAINING,0,199,112,156,171
639,GO,0.4798300266265869,1,0,0,0,48.36110782623291,go2500_nogo2700,8,SRCF014,0.3026487671132267,55.712050078247266,TRAINING,0,200,112,156,171
640,GO,,0,1,0,0,89.2906289100647,go2500_nogo2700,8,SRCF014,0.29719812038953974,55.625,TRAINING,0,200,113,156,171
641,NOGO,0.1434822082519531,0,0,0,1,106.08054900169373,go2500_nogo2700,8,SRCF014,0.2935564973767827,55.53822152886115,TRAINING,0,200,113,156,172
642,NOGO,1.311202049255371,0,0,0,1,141.34013199806213,go2500_nogo2700,8,SRCF014,0.2899361432574252,55.45171339563863,TRAINING,0,200,113,156,173
643,NOGO,,0,0,1,0,165.9498929977417,go2500_nogo2700,8,SRCF014,0.29392546551789883,55.52099533437014,TRAINING,0,200,113,157,173
644,NOGO,,0,0,1,0,182.02977681159973,go2500_nogo2700,8,SRCF014,0.29788979976397556,55.590062111801245,TRAINING,0,200,113,158,173
645,GO,1.186880111694336,1,0,0,0,251.19911193847656,go2500_nogo2700,8,SRCF014,0.3009544307151496,55.65891472868218,TRAINING,0,201,113,158,173
646,NOGO,1.6031291484832764,0,0,0,1,421.407634973526,go2500_nogo2700,8,SRCF014,0.29735462445583866,55.57275541795666,TRAINING,0,201,113,158,174
647,NOGO,,0,0,1,0,453.1172318458557,go2500_nogo2700,8,SRCF014,0.3012940477709422,55.641421947449764,TRAINING,0,201,113,159,174
648,GO,0.4929959774017334,1,0,0,0,512.7967429161072,go2500_nogo2700,8,SRCF014,0.3043426127506066,55.70987654320988,TRAINING,0,202,113,159,174
649,GO,0.4900650978088379,1,0,0,0,756.764438867569,go2500_nogo2700,8,SRCF014,0.3073752676887179,55.77812018489985,TRAINING,0,203,113,159,174
650,GO,1.9424819946289065,1,0,0,0,853.753583908081,go2500_nogo2700,8,SRCF014,0.3103921662991703,55.84615384615385,TRAINING,0,204,113,159,174
651,NOGO,0.0178709030151367,0,0,0,1,926.0029208660126,go2500_nogo2700,8,SRCF014,0.3068129105338508,55.76036866359447,TRAINING,0,204,113,159,175
652,NOGO,1.4828159809112549,0,0,0,1,1001.2822740077972,go2500_nogo2700,8,SRCF014,0.3032541992987927,55.674846625766875,TRAINING,0,204,113,159,176
653,GO,0.3839972019195556,1,0,0,0,1029.0419969558716,go2500_nogo2700,8,SRCF014,0.3062554931210273,55.742725880551305,TRAINING,0,205,113,159,176
654,GO,0.7548959255218506,1,0,0,0,1078.8214929103851,go2500_nogo2700,8,SRCF014,0.30924133156066946,55.81039755351682,TRAINING,0,206,113,159,176
655,NOGO,,0,0,1,0,1136.770917892456,go2500_nogo2700,8,SRCF014,0.3131559277278309,55.87786259541985,TRAINING,0,206,113,160,176
656,NOGO,,0,0,1,0,1165.490660905838,go2500_nogo2700,8,SRCF014,0.3170464563855308,55.94512195121951,TRAINING,0,206,113,161,176
657,NOGO,0.2075591087341308,0,0,0,1,1249.1599969863892,go2500_nogo2700,8,SRCF014,0.3135076060196771,55.8599695585997,TRAINING,0,206,113,161,177
658,NOGO,,0,0,1,0,1312.799409866333,go2500_nogo2700,8,SRCF014,0.31737413952192267,55.92705167173252,TRAINING,0,206,113,162,177
659,NOGO,0.0,0,0,0,1,1346.38907289505,go2500_nogo2700,8,SRCF014,0.3138551518610149,55.84218512898331,TRAINING,0,206,113,162,178
660,GO,0.6743011474609375,1,0,0,0,1410.1184618473053,go2500_nogo2700,8,SRCF014,0.31682568222956536,55.90909090909091,TRAINING,0,207,113,162,178
661,NOGO,,0,0,1,0,1614.326602935791,go2500_nogo2700,8,SRCF014,0.3206685146391286,55.975794251134644,TRAINING,0,207,113,163,178
662,NOGO,1.0051591396331787,0,0,0,1,1634.766459941864,go2500_nogo2700,8,SRCF014,0.31716916807477014,55.89123867069487,TRAINING,0,207,113,163,179
663,NOGO,0.0,0,0,0,1,1674.5660049915314,go2500_nogo2700,8,SRCF014,0.3136894563983922,55.80693815987934,TRAINING,0,207,113,163,180
664,NOGO,1.084978103637695,0,0,0,1,1703.245666027069,go2500_nogo2700,8,SRCF014,0.3102291729570818,55.72289156626506,TRAINING,0,207,113,163,181
665,NOGO,,0,0,1,0,1753.6352689266205,go2500_nogo2700,8,SRCF014,0.31404815822028026,55.78947368421052,TRAINING,0,207,113,164,181
666,GO,0.8304719924926758,1,0,0,0,2208.0711238384247,go2500_nogo2700,8,SRCF014,0.3170035257738862,55.85585585585585,TRAINING,0,208,113,164,181
667,GO,,0,1,0,0,2218.88099694252,go2500_nogo2700,8,SRCF014,0.3116105903336635,55.77211394302849,TRAINING,0,208,114,164,181
668,NOGO,,0,0,1,0,2249.700753927231,go2500_nogo2700,8,SRCF014,0.3154066733318857,55.83832335329342,TRAINING,0,208,114,165,181
669,GO,0.7457621097564697,1,0,0,0,2335.679993867874,go2500_nogo2700,8,SRCF014,0.3183486243824535,55.90433482810164,TRAINING,0,209,114,165,181
670,NOGO,,0,0,1,0,2537.3780829906464,go2500_nogo2700,8,SRCF014,0.3221220648268667,55.970149253731336,TRAINING,0,209,114,166,181
671,NOGO,0.962977170944214,0,0,0,1,2581.4976329803467,go2500_nogo2700,8,SRCF014,0.318680348358433,55.88673621460507,TRAINING,0,209,114,166,182
672,GO,1.3121321201324463,1,0,0,0,2661.506907939911,go2500_nogo2700,8,SRCF014,0.3216074244021834,55.952380952380956,TRAINING,0,210,114,166,182
673,NOGO,,0,0,1,0,2819.795454025269,go2500_nogo2700,8,SRCF014,0.3253582875756271,56.01783060921248,TRAINING,0,210,114,167,182
674,GO,0.3412837982177734,1,0,0,0,2845.355167865753,go2500_nogo2700,8,SRCF014,0.32827062780828575,56.083086053412465,TRAINING,0,211,114,167,182
675,GO,0.2633519172668457,1,0,0,0,3127.742622852325,go2500_nogo2700,8,SRCF014,0.331168369519096,56.148148148148145,TRAINING,0,212,114,167,182
676,NOGO,,0,0,1,0,3182.252097845077,go2500_nogo2700,8,SRCF014,0.334897110694013,56.213017751479285,TRAINING,0,212,114,168,182
677,NOGO,,0,0,1,0,3204.26189994812,go2500_nogo2700,8,SRCF014,0.33860397646011925,56.27769571639586,TRAINING,0,212,114,169,182
678,GO,,0,1,0,0,3292.02109003067,go2500_nogo2700,8,SRCF014,0.33326136077545226,56.19469026548673,TRAINING,0,212,115,169,182
679,GO,,0,1,0,0,3357.9304428100586,go2500_nogo2700,8,SRCF014,0.3279619372836892,56.111929307805596,TRAINING,0,212,116,169,182
680,GO,0.6723849773406982,1,0,0,0,3391.630115032196,go2500_nogo2700,8,SRCF014,0.33084834738126134,56.1764705882353,TRAINING,0,213,116,169,182
681,GO,0.169180154800415,1,0,0,0,3579.0384438037872,go2500_nogo2700,8,SRCF014,0.33372043404187535,56.24082232011748,TRAINING,0,214,116,169,182
682,NOGO,,0,0,1,0,3763.9868199825287,go2500_nogo2700,8,SRCF014,0.3374056668905262,56.30498533724341,TRAINING,0,214,116,170,182
683,GO,0.0423839092254638,1,0,0,0,3860.685866832733,go2500_nogo2700,8,SRCF014,0.34026356166923366,56.36896046852124,TRAINING,0,215,116,170,182
684,GO,,0,1,0,0,3993.364629030228,go2500_nogo2700,8,SRCF014,0.3350112121319119,56.28654970760234,TRAINING,0,215,117,170,182
685,NOGO,,0,0,1,0,4011.274523973465,go2500_nogo2700,8,SRCF014,0.33867505054721914,56.35036496350365,TRAINING,0,215,117,171,182
686,GO,,0,1,0,0,4070.8638968467712,go2500_nogo2700,8,SRCF014,0.33346445655870893,56.268221574344025,TRAINING,0,215,118,171,182
687,GO,,0,1,0,0,4375.2910578250885,go2500_nogo2700,8,SRCF014,0.32829497252862844,56.186317321688506,TRAINING,0,215,119,171,182
688,GO,0.0911540985107421,1,0,0,0,5020.545071840286,go2500_nogo2700,8,SRCF014,0.3311432914232417,56.25,TRAINING,0,216,119,171,182
689,GO,1.6846280097961426,1,0,0,0,5400.591504812241,go2500_nogo2700,8,SRCF014,0.3339776853357772,56.313497822931794,TRAINING,0,217,119,171,182
690,NOGO,0.0,0,0,0,1,5431.531236886978,go2500_nogo2700,8,SRCF014,0.3305540952156931,56.231884057971016,TRAINING,0,217,119,171,183
691,GO,0.9020938873291016,1,0,0,0,5470.200924873352,go2500_nogo2700,8,SRCF014,0.33337469017776894,56.295224312590456,TRAINING,0,218,119,171,183
692,GO,,0,1,0,0,5492.840670824051,go2500_nogo2700,8,SRCF014,0.32824999847363784,56.21387283236994,TRAINING,0,218,120,171,183
693,GO,0.2972640991210937,1,0,0,0,5551.440169811249,go2500_nogo2700,8,SRCF014,0.3310583626784948,56.27705627705628,TRAINING,0,219,120,171,183
694,GO,0.2847201824188232,1,0,0,0,5577.79988694191,go2500_nogo2700,8,SRCF014,0.33385317795482233,56.34005763688761,TRAINING,0,220,120,171,183
695,GO,0.0,1,0,0,0,5874.147202014923,go2500_nogo2700,8,SRCF014,0.33663456531259295,56.402877697841724,TRAINING,0,221,120,171,183
696,GO,1.4523370265960691,1,0,0,0,5946.626650810242,go2500_nogo2700,8,SRCF014,0.3394026441794302,56.46551724137932,TRAINING,0,222,120,171,183
697,NOGO,1.4934239387512207,0,0,0,1,5967.536358833313,go2500_nogo2700,8,SRCF014,0.3359977951776333,56.3845050215208,TRAINING,0,222,120,171,184
698,NOGO,1.4898569583892822,0,0,0,1,6014.806027889252,go2500_nogo2700,8,SRCF014,0.33261149463879863,56.30372492836676,TRAINING,0,222,120,171,185
699,NOGO,,0,0,1,0,6049.465555906296,go2500_nogo2700,8,SRCF014,0.33625374385065504,56.36623748211731,TRAINING,0,222,120,172,185
700,GO,1.131720781326294,1,0,0,0,6083.715327978134,go2500_nogo2700,8,SRCF014,0.3390086320991683,56.42857142857143,TRAINING,0,223,120,172,185
701,NOGO,,0,0,1,0,6273.693521022797,go2500_nogo2700,8,SRCF014,0.3426299913127768,56.490727532097004,TRAINING,0,223,120,173,185
702,GO,0.1935698986053466,1,0,0,0,6376.812638998032,go2500_nogo2700,8,SRCF014,0.34537180528730804,56.55270655270655,TRAINING,0,224,120,173,185
703,NOGO,,0,0,1,0,6485.481585025787,go2500_nogo2700,8,SRCF014,0.3489725008408114,56.6145092460882,TRAINING,0,224,120,174,185
704,NOGO,,0,0,1,0,6511.911373853684,go2500_nogo2700,8,SRCF014,0.3525527554169479,56.67613636363637,TRAINING,0,224,120,175,185
705,NOGO,,0,0,1,0,6528.321175813675,go2500_nogo2700,8,SRCF014,0.356112788122015,56.73758865248227,TRAINING,0,224,120,176,185
706,NOGO,0.1194069385528564,0,0,0,1,6545.941285848618,go2500_nogo2700,8,SRCF014,0.35274415302486567,56.657223796033996,TRAINING,0,224,120,176,186
707,NOGO,,0,0,1,0,6587.360641956329,go2500_nogo2700,8,SRCF014,0.3562840782111393,56.71852899575672,TRAINING,0,224,120,177,186
708,NOGO,0.1157121658325195,0,0,0,1,6603.26050901413,go2500_nogo2700,8,SRCF014,0.35293345188038966,56.63841807909604,TRAINING,0,224,120,177,187
709,GO,0.4706289768218994,1,0,0,0,6656.079988956451,go2500_nogo2700,8,SRCF014,0.3556623064231881,56.69957686882934,TRAINING,0,225,120,177,187
710,GO,1.425462007522583,1,0,0,0,6889.287940979004,go2500_nogo2700,8,SRCF014,0.35837831490002403,56.760563380281695,TRAINING,0,226,120,177,187
711,GO,0.9631659984588624,1,0,0,0,6950.777362823486,go2500_nogo2700,8,SRCF014,0.36108158922526173,56.82137834036568,TRAINING,0,227,120,177,187
712,GO,1.2633039951324463,1,0,0,0,7024.686834812164,go2500_nogo2700,8,SRCF014,0.3637722398864005,56.88202247191011,TRAINING,0,228,120,177,187
713,NOGO,,0,0,1,0,7063.376437902451,go2500_nogo2700,8,SRCF014,0.3672922833889238,56.942496493688644,TRAINING,0,228,120,178,187
714,GO,1.1734530925750732,1,0,0,0,7150.405591011047,go2500_nogo2700,8,SRCF014,0.3699704194706225,57.002801120448176,TRAINING,0,229,120,178,187
715,GO,1.2119801044464111,1,0,0,0,7234.494812965393,go2500_nogo2700,8,SRCF014,0.37263614867822115,57.06293706293706,TRAINING,0,230,120,178,187
716,GO,0.0,1,0,0,0,7265.594597816467,go2500_nogo2700,8,SRCF014,0.37528957736077084,57.12290502793296,TRAINING,0,231,120,178,187
717,NOGO,,0,0,1,0,7284.374284029007,go2500_nogo2700,8,SRCF014,0.37879005921039655,57.182705718270576,TRAINING,0,231,120,179,187
718,NOGO,,0,0,1,0,7352.723654985428,go2500_nogo2700,8,SRCF014,0.382271184573926,57.242339832869085,TRAINING,0,231,120,180,187
719,NOGO,,0,0,1,0,7413.603120803833,go2500_nogo2700,8,SRCF014,0.3857331554126634,57.301808066759385,TRAINING,0,231,120,181,187
720,NOGO,0.7259199619293213,0,0,0,1,7454.7727019786835,go2500_nogo2700,8,SRCF014,0.38240008703391976,57.22222222222222,TRAINING,0,231,120,181,188
721,NOGO,,0,0,1,0,7499.332324028015,go2500_nogo2700,8,SRCF014,0.38584303844069456,57.28155339805825,TRAINING,0,231,120,182,188
722,GO,0.5916879177093506,1,0,0,0,7533.012071847916,go2500_nogo2700,8,SRCF014,0.38848427161350757,57.340720221606645,TRAINING,0,232,120,182,188
723,NOGO,,0,0,1,0,7618.901188850403,go2500_nogo2700,8,SRCF014,0.39190847412031204,57.399723374827104,TRAINING,0,232,120,183,188
724,NOGO,1.90553617477417,0,0,0,1,7701.740396976471,go2500_nogo2700,8,SRCF014,0.3885929760304307,57.32044198895028,TRAINING,0,232,120,183,189
725,GO,0.8575520515441895,1,0,0,0,7726.63019490242,go2500_nogo2700,8,SRCF014,0.3912221173971669,57.37931034482758,TRAINING,0,233,120,183,189
726,NOGO,0.3930859565734863,0,0,0,1,7776.4297478199005,go2500_nogo2700,8,SRCF014,0.38792412943701293,57.30027548209367,TRAINING,0,233,120,183,190
727,GO,0.9964020252227784,1,0,0,0,7801.7495470047,go2500_nogo2700,8,SRCF014,0.39054128141130867,57.35900962861072,TRAINING,0,234,120,183,190
728,NOGO,,0,0,1,0,7889.728796958923,go2500_nogo2700,8,SRCF014,0.39394681404015325,57.417582417582416,TRAINING,0,234,120,184,190
729,GO,0.8985838890075684,1,0,0,0,7913.488446950912,go2500_nogo2700,8,SRCF014,0.3965520777668049,57.475994513031544,TRAINING,0,235,120,184,190
730,NOGO,,0,0,1,0,7976.137880802154,go2500_nogo2700,8,SRCF014,0.39993926507477784,57.534246575342465,TRAINING,0,235,120,185,190
731,NOGO,,0,0,1,0,7989.607746839523,go2500_nogo2700,8,SRCF014,0.4033082934570357,57.59233926128591,TRAINING,0,235,120,186,190
732,NOGO,,0,0,1,0,8025.297403812408,go2500_nogo2700,8,SRCF014,0.4066593464887333,57.650273224043715,TRAINING,0,235,120,187,190
733,GO,0.0,1,0,0,0,8050.317294836044,go2500_nogo2700,8,SRCF014,0.4092528218644515,57.70804911323329,TRAINING,0,236,120,187,190
734,NOGO,,0,0,1,0,8136.566485881805,go2500_nogo2700,8,SRCF014,0.41258608035778294,57.765667574931875,TRAINING,0,236,120,188,190
735,GO,0.3355510234832763,1,0,0,0,8185.025949954987,go2500_nogo2700,8,SRCF014,0.41516786605152156,57.82312925170068,TRAINING,0,237,120,188,190
736,GO,,0,1,0,0,8291.874969005585,go2500_nogo2700,8,SRCF014,0.410110259091079,57.74456521739131,TRAINING,0,237,121,188,190
737,NOGO,0.0722978115081787,0,0,0,1,8311.054774999619,go2500_nogo2700,8,SRCF014,0.4068293554773439,57.6662143826323,TRAINING,0,237,121,188,191
738,NOGO,,0,0,1,0,8336.284550905228,go2500_nogo2700,8,SRCF014,0.4101449779300124,57.72357723577236,TRAINING,0,237,121,189,191
739,NOGO,,0,0,1,0,8368.234234809875,go2500_nogo2700,8,SRCF014,0.4134431692814653,57.7807848443843,TRAINING,0,237,121,190,191
740,NOGO,1.6452720165252686,0,0,0,1,8382.114120960236,go2500_nogo2700,8,SRCF014,0.4101793341622986,57.7027027027027,TRAINING,0,237,121,190,192
741,GO,0.7638759613037109,1,0,0,0,9197.926801919935,go2500_nogo2700,8,SRCF014,0.4127509849749248,57.75978407557355,TRAINING,0,238,121,190,192
742,GO,0.3652210235595703,1,0,0,0,9311.945663928986,go2500_nogo2700,8,SRCF014,0.41531114130964214,57.8167115902965,TRAINING,0,239,121,190,192
743,GO,1.7777199745178225,1,0,0,0,9357.865273952484,go2500_nogo2700,8,SRCF014,0.41785989820236574,57.87348586810229,TRAINING,0,240,121,190,192
744,GO,0.7131459712982178,1,0,0,0,9397.124842882156,go2500_nogo2700,8,SRCF014,0.42039734953986724,57.93010752688173,TRAINING,0,241,121,190,192
745,NOGO,0.0,0,0,0,1,9422.544626951218,go2500_nogo2700,8,SRCF014,0.4171504444449931,57.852348993288594,TRAINING,0,241,121,190,193
746,GO,,0,1,0,0,9461.68422293663,go2500_nogo2700,8,SRCF014,0.4121372155872201,57.77479892761394,TRAINING,0,241,122,190,193
747,GO,1.1645359992980957,1,0,0,0,9488.394042015076,go2500_nogo2700,8,SRCF014,0.4146648905198749,57.831325301204814,TRAINING,0,242,122,190,193
748,GO,,0,1,0,0,9541.37350988388,go2500_nogo2700,8,SRCF014,0.4096910371277284,57.75401069518716,TRAINING,0,242,123,190,193
749,GO,0.6942381858825684,1,0,0,0,9667.36237192154,go2500_nogo2700,8,SRCF014,0.4122090040288624,57.810413885180246,TRAINING,0,243,123,190,193
750,GO,,0,1,0,0,11002.160013914108,go2500_nogo2700,8,SRCF014,0.4072739144263621,57.733333333333334,TRAINING,0,243,124,190,193
751,NOGO,,0,0,1,0,11072.329324960709,go2500_nogo2700,8,SRCF014,0.41055481879804945,57.78961384820239,TRAINING,0,243,124,191,193
